packet_counter,timestamp_s,q_w,q_x,q_y,q_z,acc_x,acc_y,acc_z,gyr_x,gyr_y,gyr_z,mag_x,mag_y,mag_z
29783,0.000,0.9979911074947844,0.0067349466701387105,0.0022951081968205873,-0.06295333456656177,-0.019492280495198442,0.03707652846089951,9.736482897302405,0.013363307657910372,0.0007688109134168881,-0.004552643752976662,2.0867017421194576,-0.5806464223831799,-1.1990466204050236
29784,0.008,0.9979912919895482,0.006726313104969822,0.0022972296415572423,-0.06295125543641472,0.0023431869979824342,0.046705343898351355,9.753855550743747,0.00801243214635719,0.0007633782723637409,-0.008118398946894435,2.085028698883203,-0.5777632251113464,-1.203969389358887
29785,0.017,0.9979908838253969,0.00672889957784536,0.0022871611763857214,-0.06295781608051836,-0.019516832232685914,0.038711933857056985,9.736476481580656,0.010986065532135313,-0.001811343665266688,-0.010185225535353302,2.0918659164031452,-0.5824040058282803,-1.2041195020995927
29786,0.025,0.9979908458632781,0.006727789347031692,0.0022860485423439277,-0.0629585769030954,0.06270189736836668,0.027877385813951956,9.787020636850803,0.009931526484104282,0.00022833240895014248,-0.00880782329770978,2.0866355422062153,-0.5830019559543163,-1.189990887284962
29787,0.033,0.9979904921267339,0.006746192924908804,0.0022853235007246598,-0.06296224108270934,0.0244593211467492,0.060265669395338235,9.7205190944792,0.014636624788055701,0.0006638410263821301,-0.009500189719650842,2.0876834798518074,-0.5828505427041231,-1.199750990323374
29788,0.042,0.9979899508978614,0.006746353578353912,0.0022892416298496776,-0.062970659779306,0.021426102311888552,0.034643931966485325,9.787088726006326,0.010041028016180956,0.0011950067419230098,-0.010593013147797493,2.0876750143058618,-0.5762474533784198,-1.1985929567090265
29789,0.050,0.9979898221001055,0.00675689673104209,0.002291252947291497,-0.06297149745002469,-0.000570286740464487,0.026794223786391427,9.769713350699364,0.012715577629910036,0.00119833939167239,-0.008809379752791915,2.088891725885764,-0.5818577988533306,-1.1980424765839135
29790,0.058,0.9979891321108691,0.006752683631989447,0.0022887692512295684,-0.06298297379193274,-0.0006086972733752268,0.02768525071503217,9.76971086180495,0.009174395251570659,-0.00031090324398004376,-0.01127891918107655,2.0915721182892466,-0.5779447711821997,-1.1973275612801084
29791,0.067,0.9979891428910763,0.006767203745981394,0.0022968222662481915,-0.06298095134619965,-0.01702636188960231,0.06874127945574554,9.72056701101792,0.013579939626137433,0.0027036340598682413,-0.008121793959521494,2.088695843959004,-0.580943863918111,-1.2046448563221137
29792,0.075,0.997989453002834,0.0067622833038096354,0.002304976788203315,-0.06297626776515856,-0.03928617873535711,0.0587177851299952,9.753887791037721,0.00887462728637948,0.0022672518200671497,-0.007429182929676859,2.088909944729641,-0.5765101262741275,-1.200534700211158
29793,0.083,0.9979904305082763,0.006775310164764375,0.002305094556169088,-0.06295937043176408,-0.01751987893134772,0.06841142787488924,9.771251835101353,0.013358670904813456,0.0007699888180776953,-0.0045487621483441655,2.093365086044595,-0.5758565463253342,-1.2088097147238268
29794,0.092,0.997990854285504,0.006773160747230528,0.0023001093439566516,-0.0629530662715325,-0.01195504705019676,0.11826220122160208,9.73946128261088,0.009818082541781542,-0.0007400603480300787,-0.007018387230522415,2.0840005613595833,-0.5754988391490826,-1.1969178188780831
29795,0.100,0.9979910364796563,0.006764001859856322,0.002301547263986525,-0.06295111011962373,0.0019008086028664839,0.05868167255588911,9.703104823801622,0.008008220122541286,0.0007609805274266242,-0.008115041698435323,2.0881682635612324,-0.5816252587782831,-1.1992707639874223
29796,0.108,0.9979913323819087,0.0067591111550729804,0.002309763822072915,-0.06294664326286602,0.0043948854636106415,0.08169072089599222,9.737904125025464,0.008873124577210676,0.00226654434641359,-0.00742831235931941,2.0926001033159216,-0.582406323737562,-1.2043582711347685
29797,0.117,0.9979917731397816,0.0067570604964804284,0.002304498811788411,-0.06294006803291811,0.02081916481733822,0.04447178414889375,9.736361024098256,0.009817222959321756,-0.000740267145922244,-0.0070173677831658005,2.0854579225471053,-0.5798839006981535,-1.1958888971048116
29798,0.125,0.9979915022484728,0.0067639984107200676,0.002301145676895813,-0.06294374070478279,0.01807998952403191,0.020902310679363812,9.752256434897912,0.011846096541830688,-0.00030871175298705236,-0.009492119197151875,2.0922844154788036,-0.5847549035808534,-1.1945719534068322
29799,0.133,0.9979915652090822,0.006751702246279212,0.0023153262132114055,-0.06294354258246858,0.03721152679166119,0.00814526265740253,9.734823422128084,0.0070622158092135,0.0037668735964096096,-0.008524901590970165,2.0906333127980847,-0.5743315029552815,-1.2024960528111959
29800,0.142,0.9979911377882104,0.0067546186971023875,0.0023063192528182904,-0.06295033688515345,0.039744835439208384,0.0312183610039128,9.769619386199624,0.010980358588568514,-0.0018147831641066009,-0.01017740963928127,2.0881931463995937,-0.5831224872369571,-1.2026745802831091
29801,0.150,0.9979910957679085,0.006753304177042012,0.0023050186009295776,-0.0629511917274946,-0.0067410395436282595,-0.01000418808404323,9.750791833579354,0.009925430070294292,0.00022551072274386676,-0.008802049946029978,2.083787838537781,-0.5857940056172772,-1.2012164697512104
29802,0.158,0.9979910798838564,0.006752516872866166,0.0023039062117355268,-0.06295156871996231,0.017899547306409982,0.02406536710134832,9.752249474139209,0.009925011671879412,0.00022536405581851114,-0.008801695562277062,2.0874485907247795,-0.5782236694428784,-1.2010174296035845
29803,0.167,0.9979908135193084,0.006759051753293621,0.0022998690021742646,-0.06295523769344845,0.015131501696312787,0.0005070778964767624,9.768156885039307,0.011843806169175993,-0.00030927088961100715,-0.009489891827637166,2.0869063776419488,-0.5840132430793611,-1.1936416776861098
29804,0.175,0.9979909834678387,0.0067503637272516084,0.0023021967956002895,-0.06295339066612106,-0.0013979506140046206,0.039285847519217106,9.769671019231458,0.008004921839504442,0.0007594752543196815,-0.008112484208047551,2.0865114003999223,-0.5770540153397957,-1.2064068657597342
29805,0.183,0.9979909759890357,0.006764006694514528,0.0022914603028210195,-0.0629524365499003,0.02052693934122412,0.04899483712565066,9.787029335280145,0.013652732177736304,-0.0018096626452453765,-0.008391287089468048,2.083797557947502,-0.5743315029552816,-1.2025460240694088
29806,0.192,0.9979913003264617,0.006759492669094929,0.0023175614489836134,-0.06294682391102406,0.0012020227561085645,0.06552132024786603,9.753747512040942,0.008787962208358686,0.006777792054037145,-0.00715207865321191,2.087191439104221,-0.5857754623430248,-1.1992384993336567
29807,0.200,0.9979911542092943,0.0067691548408331005,0.0023007781529951836,-0.06294871787918001,-0.0401083448039689,0.07109226710163695,9.753802103888866,0.012787505043860222,-0.003316209574178172,-0.00907586440564973,2.0854920334161395,-0.5769983855170384,-1.200555050145566
29808,0.208,0.9979906486434053,0.006769812667926159,0.002322720886699302,-0.06295585615682614,-0.04297267638567117,0.0475751043464376,9.769715470723984,0.009950470628557057,0.005702097255254523,-0.010312042803418844,2.0852204016074674,-0.5874611906003967,-1.196795320918999
29809,0.217,0.9979910908976776,0.006767745011020722,0.002317453280225421,-0.06294926152564294,0.003344476998217127,0.09049336169560235,9.788508417968837,0.009813169969207426,-0.0007412289872089594,-0.007012673646428611,2.091552792602217,-0.5735249409939055,-1.1946839284482815
29810,0.225,0.9979915104480455,0.006766186222250804,0.002313375496130622,-0.06294292725516269,-0.040361957660811555,0.07360867216450581,9.753782389667613,0.009812823268214059,-0.0007413505819299463,-0.0070123799274948335,2.087200972128785,-0.5769983855170384,-1.2005425573310124
29811,0.233,0.997991245130526,0.006772706018264412,0.0023093337770740668,-0.0629465811106433,0.0008422521034462927,0.06980336917310298,9.75371784532563,0.011840265889735435,-0.00031069268406065887,-0.009486186998892022,2.085733993196173,-0.5826110489012309,-1.2002558318701817
29812,0.242,0.9979911107108234,0.00678347438151567,0.0023117740701485328,-0.06294746315890312,0.0008009299473276343,0.07080091987793245,9.75371065937097,0.012703898561264224,0.0011956970563117525,-0.008800128300207585,2.090362053759723,-0.5794234563666213,-1.1987873162263145
29813,0.250,0.9979921219684464,0.006768834952060171,0.0022992315807147915,-0.06293346404297229,-0.0018964935646727478,0.04716653129467278,9.769636066524278,0.006920004511717417,-0.0026790064647263176,-0.005222790830203924,2.092604965758944,-0.5894930364876131,-1.2050234228573056
29814,0.258,0.9979922063110163,0.006757056555024538,0.002314010952403525,-0.06293285058294289,0.020097777228162014,0.058637716752463834,9.736287529054875,0.0070552765599855355,0.003763296362297496,-0.008522706503246689,2.082026581580005,-0.5681471355940422,-1.194072154618239
29815,0.267,0.9979909751992,0.006765044209984855,0.0023178872549566875,-0.06295137009200602,-0.007503946611745623,0.0016969796274573714,9.750796262119064,0.012055814134320447,0.0016183692431161615,-0.013056940772939368,2.0874784546148977,-0.5850987033014159,-1.2051026225532533
29816,0.275,0.9979909908352979,0.006751959995288891,0.0023136831837644576,-0.06295268157853214,0.01708524880798517,0.03576606737696404,9.75221504060713,0.007136695323633813,-0.0007496181407936624,-0.008794253000392832,2.087157802670128,-0.5818253481233888,-1.1946372460186838
29817,0.283,0.99799108946824,0.006754593068151996,0.002318422312594955,-0.06295066109629065,-0.024125737727687266,0.041159721943020984,9.7522669053106,0.010782801699405237,0.0017297777540672726,-0.008110772380328026,2.0827886952785972,-0.5772193360456781,-1.198131132878384
29818,0.292,0.997990629609371,0.006742570922518329,0.002318602820035749,-0.06295923308148961,0.008890517994607291,-0.03401959873722973,9.749327396660217,0.007244513553242523,0.00021456113223679808,-0.01057983598519051,2.088120248603657,-0.579121379013127,-1.1927026187999061
29819,0.300,0.9979908487139557,0.006748339904183814,0.0023106005777659856,-0.0629554359583524,-0.004873083922087174,0.029131754018149544,9.734853144133169,0.011728491604356635,-0.0012759229523660307,-0.007696454098665763,2.088691834197559,-0.5872865982573882,-1.204096346093919
29820,0.308,0.9979912118178333,0.006758674472334319,0.0023094759593883345,-0.06294861217328769,-0.007573796130654321,0.005693266455240318,9.75079469400055,0.012591692253564005,0.0002309456193006476,-0.007010876144249452,2.089397857107047,-0.5816368483246908,-1.2004824560412353
29821,0.317,0.9979911369795558,0.006742360701484355,0.002317589969231616,-0.06295124986177436,-0.00235913491626691,0.053283413539987286,9.769604518953567,0.006188374583352675,0.0022547725217225995,-0.009206625651991495,2.0852709636571274,-0.5789815553093418,-1.203711892335791
29822,0.325,0.9979918402601008,0.006747630842888201,0.002305895995407761,-0.06293996421928154,0.00037517052590553063,0.07843074137007784,9.753652316120773,0.011619265286686678,-0.0022404289795269275,-0.00590889616004599,2.079644714180602,-0.5855591476329479,-1.20222561968527
29823,0.333,0.9979908877311109,0.006763545319343571,0.0023218637415844115,-0.06295277125868831,0.00027225268409028557,0.07946292067751363,9.753643967034233,0.013777979236060785,0.004630400516224535,-0.01168357682873114,2.0857538441504615,-0.5794628608244077,-1.202971317969838
29824,0.342,0.9979907308437469,0.006758570325142121,0.0023143316283612265,-0.06295606997135858,0.016694855337177843,0.04244212303079937,9.7521889481914,0.009052692643024725,-0.0012856227909709415,-0.009478375724491592,2.093081131425478,-0.5838618298291681,-1.2033643022808622
29825,0.350,0.997990346947616,0.0067619215629529305,0.002323024656014248,-0.06296147530515313,0.01920261232096087,0.06567098889318483,9.786934331273835,0.010886831875530663,0.0026928343534657895,-0.009894498373370988,2.090149771484653,-0.5833712526769758,-1.203146231130525
29826,0.358,0.9979908119825167,0.00676026830735133,0.0023181943092066247,-0.06295445930222135,-0.0027506835732601562,0.0576246084402533,9.7695797766323,0.009807447196835038,-0.0007424546794900539,-0.007006363908957425,2.0842623382056944,-0.578451573699363,-1.1993294510076569
29827,0.367,0.9979906874868021,0.006770730550540208,0.0023201967202251283,-0.062955234767348,0.01653058661300177,0.04501126709210465,9.75217771076897,0.012696326843322003,0.0011945969177297206,-0.008794223798548346,2.0894034989789025,-0.5774935984877938,-1.2012542287418417
29828,0.375,0.997990507031176,0.006766374951881711,0.0023321016128066375,-0.06295812376282392,0.03821504414926735,0.05479065786370918,9.769521726536896,0.008966950369477648,0.003226133369563018,-0.009206902873497758,2.086748514681038,-0.5753358363524818,-1.205444813609163
29829,0.383,0.9979899848149242,0.006765745179019559,0.0023347403758011394,-0.06296637109328834,0.016164507320839953,0.046665692767164244,9.752170546357458,0.010021705129087202,0.001184435120702163,-0.010577734633675586,2.084739966541588,-0.5774611477578518,-1.1978704144301322
29830,0.392,0.9979911121717775,0.006755053495443815,0.002328455974782699,-0.06294988142313244,-0.003146065936079755,0.06091927514999136,9.769559667594706,0.0077804254205364395,-0.0011723016025521127,-0.004532021480381456,2.087977854065277,-0.5790093702207205,-1.2066217379527355
29831,0.400,0.9979912973457855,0.006745839095544853,0.002329871587922818,-0.0629478814207197,0.038040967532151755,0.05693797969705853,9.769510126283764,0.007995208849596626,0.0007545254955609734,-0.008104487438690923,2.0889040995285244,-0.5835829315684893,-1.1997351133423595
29832,0.408,0.9979912679713224,0.006744748044264725,0.0023287618050720103,-0.06294850510748891,0.016132493466912538,0.04876078077112141,9.752160348881947,0.009913021053907237,0.0002204747793853557,-0.008790515410575338,2.0865041603058656,-0.5785095214314018,-1.2054164662814146
29833,0.417,0.9979913680966249,0.006747350052666064,0.0023334960246889688,-0.06294646350825917,-0.027844356001021687,0.029810236958362882,9.76817131265761,0.010775424462956828,0.0017280882890838823,-0.00810566000033966,2.086487861622186,-0.5819064749482433,-1.2031869085315205
29834,0.425,0.9979919593299463,0.006749369337901561,0.0023341898468471865,-0.06293684679164452,-0.008636719321063647,0.017151518029135157,9.750780386636576,0.010667704920598152,0.0007647336914535358,-0.006318967205896043,2.085220791321884,-0.5818462093069229,-1.1968486314080338
29835,0.433,0.9979919210985189,0.006747997062031236,0.002332869721813177,-0.06293764911879342,-0.008677829590354012,0.017987084952585886,9.750778844127161,0.009911878886553073,0.00021985650456700503,-0.008789397779275511,2.0881762322518065,-0.569672178964095,-1.2003608309017635
29836,0.442,0.997992118835681,0.006754633100439877,0.0023443710180768777,-0.06293337427849342,-0.02813245892065261,0.03239230248892161,9.768162266779882,0.011636714049404749,0.0032355470933392682,-0.007420345793774376,2.086242146242284,-0.578974601581497,-1.2029723842889501
29837,0.450,0.9979928407439013,0.006760467087335262,0.002351203857926415,-0.0629210437699329,-0.025643269584239927,0.05773836802497685,9.752178970894636,0.01152912924456826,0.002272448819675459,-0.00563358978197737,2.0908663495413355,-0.5799325767930662,-1.2009762190430324
29838,0.458,0.9979925718393086,0.0067671301936220105,0.0023475315923661587,-0.06292472962142129,-0.0064113553704418635,0.045154445458122375,9.734791118195552,0.011828714952214011,-0.00031478090283310615,-0.009473914838292685,2.08426245681443,-0.5767426663491751,-1.1993456759391024
29839,0.467,0.9979927577711414,0.006757903940504366,0.002348940369000836,-0.06292271966329799,-0.009144451624582618,0.021555725661328858,9.750771180687769,0.007992500750938315,0.00075277926281506,-0.008102073176742386,2.0873930645674665,-0.5810813697126149,-1.1934217993801592
29840,0.475,0.997992108993834,0.006768613789245211,0.0023370176066666018,-0.06293230173860083,0.015487875719217205,0.05573704344186964,9.752124019376451,0.012883231364181996,-0.0023570202634459036,-0.010842818134950472,2.083817273348949,-0.5731363518501017,-1.2052429673902707
29841,0.483,0.997992071457007,0.006767230741674265,0.0023356933147080723,-0.06293309490071008,-0.00899599813334908,0.02332843312848304,9.75076723972146,0.009909383090179644,0.00021861338444614076,-0.008787105333232969,2.0899123013773306,-0.5902161537148529,-1.2040596084867605
29842,0.492,0.9979921903616888,0.006770047173354589,0.0023403025723789895,-0.06293073511583615,0.015487105772213537,0.05750589322687168,9.752113749062262,0.010771204506654052,0.0017267320582548009,-0.008102750467920401,2.09208220843966,-0.572113475178649,-1.200309097423577
29843,0.500,0.9979927744652701,0.006771900643780476,0.002341081388564379,-0.06292124295272648,0.015382410077023621,0.05837781692552921,9.752108734121203,0.010664081918761078,0.0007641908449119851,-0.006315968177677837,2.0881577931345645,-0.5781935366222181,-1.1978384752589775
29844,0.508,0.9979929488240178,0.006777647361531195,0.0023339956915061546,-0.062918121856084,-0.003921034054803488,0.07282076031424947,9.76947792665326,0.011719232717923871,-0.0012781004444458195,-0.007684865854738014,2.085032030880445,-0.5811856756302849,-1.204425185693108
29845,0.517,0.9979924286237216,0.006776985226151481,0.0023366179240362026,-0.06292634660972876,0.03455339110760845,0.04472608810829495,9.785431600230599,0.010014309577073787,0.0011799335418487514,-0.010572125750386284,2.0933312123930308,-0.5753242468060741,-1.2041760115459634
29846,0.525,0.9979926058541474,0.006767767968815136,0.0023381463020833663,-0.06292447098736142,-0.0013071517628426602,0.098831459680136,9.753466851237167,0.00798978922746475,0.0007513958090161842,-0.008100103982881704,2.0832752805394845,-0.5757522404076643,-1.1978973474883374
29847,0.533,0.9979926709920578,0.006755377425740537,0.0023522864001921627,-0.06292424231300763,0.015297644693438518,0.06342392010871611,9.701382277796831,0.007040285947141248,0.003755599759788561,-0.008517450367822556,2.0923204973403497,-0.5791862804730106,-1.1995077258669848
29848,0.542,0.9979925195323918,0.006765989823762605,0.0023550580888461077,-0.06292540059858327,-0.006929694566963704,0.053362816261574894,9.734749228707463,0.01268612419052881,0.0011924171108651036,-0.008785780123185385,2.0879637127592656,-0.5770377899748249,-1.204687295943083
29849,0.550,0.9979921212624706,0.006768472228352472,0.0023449412321619885,-0.06293182765776399,-0.0069082843465961205,0.05432146972622941,9.734743940581675,0.01096201414997067,-0.001825078502996863,-0.010152602597881592,2.0831183380365714,-0.5795277622842914,-1.2098263962951301
29850,0.558,0.9979923143409037,0.006759125610479914,0.0023457622591939176,-0.06292973968556008,-0.012255137357253688,0.006310845071963894,9.76675290321676,0.007988391263471999,0.0007507756751782433,-0.00809889404695247,2.0884147075376527,-0.5740595584224475,-1.1995849556660143
29851,0.567,0.9979921925901819,0.006769537292706723,0.002347757927966193,-0.06293047692967273,0.012207754633655055,0.040505837870325856,9.768077006768843,0.012684484679889807,0.0011921572530361212,-0.008784650915463658,2.085064187701072,-0.5807391387544422,-1.2088240371618133
29852,0.575,0.9979923682170329,0.006760259923475198,0.0023491097856990625,-0.06292863854828225,-0.03157441194635668,0.023409219569997457,9.733407797238334,0.007987687591980158,0.0007503880486405157,-0.008098286450546777,2.0789413908601437,-0.5780282159163358,-1.2062087965933739
29853,0.583,0.9979923682993505,0.006773820938961955,0.002338369229201625,-0.06292757897367822,0.01216615879347312,0.04222886746589732,9.76806976246448,0.013633268652672236,-0.0018120760369353356,-0.008365391362535073,2.0939581534233658,-0.5776287863730161,-1.1897442161942917
29854,0.592,0.9979928049295532,0.006772755587459495,0.0023526692721604504,-0.06292023551999487,0.014770684232752079,0.06756405816786767,9.752050362464692,0.009709799675422171,0.00376783618448523,-0.006731082155330482,2.0869315146418863,-0.5818485272162043,-1.1970802616920364
29855,0.600,0.997993958361007,0.006762054168166033,0.0023461742687360585,-0.06290333190425551,0.012146333362430336,0.04576373793279862,9.71735380794725,0.007774895444487919,-0.001172966279298726,-0.004524402222501534,2.085748270055025,-0.5826295921754834,-1.202208816658629
29856,0.608,0.9979934481877807,0.006761860457537906,0.002349308204542714,-0.06291132941193264,0.03382095166029808,0.053596961859283684,9.78538959221552,0.01000938536538022,0.0011772340307584425,-0.010568185856737128,2.0867123480989656,-0.5821251075676016,-1.200497451912263
29857,0.617,0.9979942565615066,0.0067558465942298114,0.002352817493136621,-0.06289901952244605,-0.009977398790061548,0.03639713589937141,9.750726259924676,0.00874152683270644,0.0012973076090040615,-0.005627211136940886,2.092862202100028,-0.5807205954801896,-1.2068139423639797
29858,0.625,0.9979940062363098,0.0067625607971909035,0.002349006812722511,-0.06290241215453483,0.031162164141061554,0.03268401041411435,9.750694724240272,0.011819965820341519,-0.00031789955142088114,-0.009465172253000134,2.090135867396112,-0.5779818577307047,-1.201244238983763
29859,0.633,0.9979945915270152,0.0067643881461825145,0.002349785031658794,-0.06289289980704722,0.006616438932569038,0.0002313616006165066,9.749388558508459,0.01065790696007122,0.0007636165989005525,-0.006310918228984891,2.0810779719585955,-0.5772170181363966,-1.1978995025943815
29860,0.642,0.9979936888975999,0.006767734068789115,0.002344100067964671,-0.0629070734576582,0.031143473595322966,0.03448414711072713,9.750688583318789,0.011063476186377562,-0.0008666598943095065,-0.01193387976651606,2.089119629080311,-0.5842782338843505,-1.1958204055356234
29861,0.650,0.9979938925677496,0.006759279945983216,0.0023642870615697108,-0.06290399572979681,0.011794344936165609,0.0506377314367113,9.717330065981821,0.007895025275693171,0.00526156496607879,-0.007832386880316476,2.0864822875267506,-0.5850732062993188,-1.2024244072203116
29862,0.658,0.9979950678481654,0.00674925852731735,0.0023584910971509313,-0.06288664071019145,-0.0077135801631148596,0.06480713950751964,9.734679174826578,0.007773455884612016,-0.0011730688067384826,-0.004522318498236606,2.0913813021347702,-0.5811879935395665,-1.2046229069090377
29863,0.667,0.9979938437796486,0.006757127573578069,0.002362310331269384,-0.0629050752704103,-0.007907577276330046,0.0637707428593449,9.785383832530846,0.012028638434559704,0.0016027474620272449,-0.013036092682151617,2.0878437882401726,-0.5820092121035236,-1.1882823735455015
29864,0.675,0.9979939201627055,0.0067594439125633855,0.002349461078944977,-0.06290409580391051,-0.0051937168544243205,0.08907597948399552,9.769342643422656,0.010851242733458898,-0.00278879653474749,-0.008358681489461502,2.094030780113621,-0.5855359685401322,-1.199679092119905
29865,0.683,0.9979938852042544,0.0067580203417681554,0.002348122568865766,-0.06290485336108598,-0.029605929266151562,0.05654085607713104,9.768047981080626,0.009899940140775962,0.00021451733936739747,-0.008778388864469583,2.0898719331723337,-0.5803976569431615,-1.1985374911139481
29866,0.692,0.9979940757947164,0.006749329769790453,0.002350550807367875,-0.06290267194015654,-0.0076377225524381495,0.06810306691469986,9.734656734592402,0.007982730032843378,0.0007477696051305314,-0.00809440480620285,2.085721416224153,-0.5838154716435369,-1.1985353809435437
29867,0.700,0.997993335077783,0.006756467078965599,0.0023504242246925808,-0.06291366146473862,-0.0103653767055009,0.044540006614283305,9.750692061495073,0.011921000668124949,0.0006412734075218961,-0.011247840616020832,2.089335548346515,-0.5793585549067377,-1.1919590082179226
29868,0.708,0.99799368791561,0.0067667411472961975,0.002349681433151652,-0.06290698762465773,-0.010233227836930182,0.04735099403541766,9.699976571767081,0.012571020048939669,0.00023024148550176196,-0.006991540400301596,2.086190595958206,-0.5759778267548673,-1.195920628599021
29869,0.717,0.9979947043405188,0.006752065146994972,0.00233712591400482,-0.062892905537857,0.011531842439259686,0.05534480254802854,9.768005020077558,0.006911226483872881,-0.002682939900681809,-0.005202830640942253,2.0852543599795568,-0.5867728420123802,-1.2014406133336093
29870,0.725,0.9979957365101312,0.006738638185708593,0.0023439451498999116,-0.06287771134621085,0.009072800715880798,0.03334752971017978,9.733337623215464,0.006820253636228081,0.001830054615408499,-0.004940946625056149,2.083794412335415,-0.5682236266003335,-1.2021157240560305
29871,0.733,0.9979953571561229,0.006741886658772172,0.002352606633231729,-0.06288306052612676,0.006227364512080957,0.009699903465861992,9.749383992514261,0.010862944520194871,0.0026834244614142412,-0.00988063607725958,2.092347113953753,-0.5814182157053326,-1.2031487117191795
29872,0.742,0.9979952004948528,0.006752082876463192,0.002354853517130868,-0.06288436873326349,0.027905779692777428,0.019683986354000944,9.766702931397525,0.012674252526258537,0.0011899809258614153,-0.008776771964845062,2.08767467542376,-0.5811300458075276,-1.19854659976204
29873,0.750,0.9979952512963518,0.0067388434104054375,0.002350177328331682,-0.06288515759658785,0.03054387223497159,0.044854381713637155,9.750648288074702,0.007120047125725844,-0.0007635496312055824,-0.008774807625708522,2.0818224937451992,-0.5826040951733861,-1.1995520175792074
29874,0.758,0.9979950018746663,0.006745712568011727,0.002346550738768263,-0.06288851480807205,-0.03509250901543152,0.01673248097779021,9.749401328427526,0.011812990536521335,-0.0003201671930565833,-0.009458348356967097,2.083786867247468,-0.5740734658781368,-1.201083603325423
29875,0.767,0.9979947077110743,0.006737149317083008,0.0023518757297834353,-0.06289390177368952,-0.015968885824784836,0.0022139807949654445,9.782774371096224,0.008084060437052757,0.0017058207110568803,-0.009878590712978103,2.0850068599922973,-0.5838386507363524,-1.2009819659924827
29876,0.775,0.9979946669722877,0.006735883059349585,0.0023506918393000177,-0.06289472809512958,-0.010744568087332288,0.05166493165676929,9.750656500766116,0.009895665319775556,0.00021286480119349653,-0.008774530229024117,2.0887672621414746,-0.5805483210464626,-1.2144144159590484
29877,0.783,0.9979935824427982,0.00674767684285019,0.0023605599561075346,-0.06291030135762954,-0.010884105081500063,0.05258932189296781,9.75065140640066,0.012880379498610178,0.0031087708650211388,-0.012348097880875127,2.0928496929044274,-0.5809484997366743,-1.2051027628267388
29878,0.792,0.9979929466659064,0.006742964640058,0.002356556983161737,-0.06292104156917563,-0.008527241488846614,0.07606453392678969,9.785295469469151,0.009139135345554019,-0.0003382945769571958,-0.011242304577934906,2.093500138824288,-0.5788888389380794,-1.193886289008582
29879,0.800,0.9979939321000112,0.006755842567855369,0.002356734899123614,-0.06290402120193048,-0.01102341763336863,0.054394664978119865,9.750641345862663,0.0133219788203921,0.000781413388917532,-0.0045185295368196645,2.0913794328068884,-0.582406323737562,-1.204367194573735
29880,0.808,0.9979942456723727,0.006750931380556855,0.002365268587768459,-0.06289925305466917,0.030039260949554055,0.05081147634703003,9.750620633364356,0.008837495094230699,0.002255604533580518,-0.007408355847164857,2.086944091613907,-0.5806441044738984,-1.1988007126186746
29881,0.817,0.9979938670302405,0.006754156609088754,0.002373923537772028,-0.06290458827115751,0.03247822086307017,0.07596713593788423,9.734547359598704,0.01085749951487523,0.00268152596657016,-0.009877205309976832,2.088924035203337,-0.5792140953843893,-1.2024621886787625
29882,0.825,0.9979944476652447,0.006756228032733401,0.002375195439248844,-0.06289510520492418,0.032333350611015325,0.07684163289107003,9.734540977792312,0.010648926906577575,0.0007632227557150131,-0.006303438847169728,2.089634988332269,-0.5796745397159215,-1.1995227217380129
29883,0.833,0.9979948976815156,0.0067540585980583176,0.002369910105608536,-0.06288839654663564,0.00786016551986837,0.04426009088641405,9.733295174224153,0.009788964756080824,-0.0007474407924665783,-0.006984967684628561,2.0908858277253106,-0.5821552403882617,-1.2036407125010034
29884,0.842,0.9979952231204596,0.006749039939463058,0.0023778971948219068,-0.06288346915979487,0.048986285269500336,0.04054346771499611,9.733279450649018,0.008835967115042443,0.002255000364298716,-0.0074073678279741,2.0927748410600837,-0.5793863698181164,-1.1948634997714869
29885,0.850,0.997995673254366,0.006746868158722104,0.0023726113219192297,-0.06287675763848909,0.0024569856862674115,-0.0029256757651765315,9.76544358964316,0.009788390817706513,-0.0007476294001760638,-0.0069842857332489995,2.085529340729576,-0.579488357826505,-1.2056584567417465
29886,0.858,0.9979948834485375,0.006739260130238054,0.0023825005322067683,-0.06288973425489457,0.010112027936040985,0.0691073884295463,9.767918920092962,0.008183372658592827,0.0026615084701132065,-0.011662022320852634,2.0896492313029107,-0.5801813422330847,-1.2014710708317615
29887,0.867,0.9979945053263198,0.006742472683881391,0.002391151851395269,-0.06289506175690555,-0.017028169786242553,0.013854188949521886,9.732051407500743,0.01085456190420523,0.002680420006025465,-0.009875277161137576,2.0898808731532217,-0.5801651168681137,-1.199760424454077
29888,0.875,0.9979945883032796,0.006744483647414685,0.002377698127216291,-0.06289403953725692,-0.033936037409140474,0.05088155841988435,9.784000182277698,0.010844215424491174,-0.002791492586288284,-0.008346547069933045,2.0801799074427416,-0.5780513950091513,-1.2086411041399663
29889,0.883,0.9979937979571561,0.006735820699294302,0.0023681486951270423,-0.06290786779343663,-0.05294444001485459,0.06692296876079673,9.750601946644682,0.008275694523417917,-0.0018526054902303721,-0.011919241685305513,2.0881823201467187,-0.5848174871314555,-1.201193616760328
29890,0.892,0.9979936494413603,0.006730597174882742,0.0023603055828634823,-0.0629110776727011,-0.07219164774840046,0.08115689477382476,9.76791617988089,0.009030922401309758,-0.001300241745768344,-0.009450675180611785,2.0825423699109136,-0.5830761290513261,-1.1978331661312374
29891,0.900,0.9979924287343918,0.006738395799048007,0.00236409471076339,-0.06292946263145585,-0.036095357539070345,0.030593917373898685,9.74936402356962,0.012012193202487888,0.0015943712664590048,-0.01302406166334074,2.086165458958269,-0.578142542618024,-1.1924820445930941
29892,0.908,0.9979919037211713,0.0067381938140536335,0.0023676506044307023,-0.06293767617041852,-0.06065453746209066,-0.0019467785038255441,9.748145411284993,0.009992384583182634,0.0011687394328792724,-0.010555120647914869,2.087017396068365,-0.578786101782799,-1.2088283024382613
29893,0.917,0.9979924781969641,0.0067391799115167775,0.002349637137855358,-0.06292913571409653,-0.019356354366356136,-0.005551006740753865,9.748137413312753,0.010739189299904856,-0.003749794091526268,-0.006557408705670677,2.0896886451616994,-0.5780351696441803,-1.2068626396261355
29894,0.925,0.9979933432759209,0.0067487489277509435,0.0023620958258254907,-0.06291392268941813,0.04627579436935815,0.024380534096778986,9.74933853547032,0.01236176906814711,0.0037856952695843487,-0.004937510993781932,2.0945232275197294,-0.5767519379863014,-1.200247211446006
29895,0.933,0.9979935338309917,0.006739435607834305,0.0023634686884415794,-0.06291184669819176,0.04347148642433021,0.0008718777702472273,9.76543543139877,0.007972226725571642,0.0007426115893467652,-0.008085969058838802,2.0850430943507905,-0.576072861035411,-1.2059385990787796
29896,0.942,0.997993748731542,0.0067458143467526545,0.0023745905409100054,-0.06290733503595883,0.09218146823513952,0.06854579010697093,9.767844627162038,0.011605135331849044,0.0032322723990857094,-0.007404808262677866,2.091363794943307,-0.5762822220176431,-1.2022280328704655
29897,0.950,0.9979938546190044,0.006748291522499123,0.002379303319059786,-0.06290521138939961,0.11396890480677303,0.08025941449850728,9.734428967924362,0.010745979964505964,0.001720773429283845,-0.008085488397978232,2.0882023744302667,-0.5787397435971678,-1.2039369170281766
29898,0.958,0.9979938028577018,0.006746837425239414,0.002378268696216765,-0.06290622767572121,0.09206848595386687,0.0719970141646529,9.717119592833418,0.009886925024959024,0.00020923077929472538,-0.008766144900864305,2.083800805224219,-0.578974601581497,-1.2029902311668834
29899,0.967,0.9979929289656294,0.006749950884052579,0.0023720471366586744,-0.06291999117966561,0.012135907205226936,0.10435180494769229,9.751729732479216,0.011046331256742129,-0.0008775226633533827,-0.011914579355288862,2.0833231599442192,-0.5802091571444634,-1.2044469498970587
29900,0.975,0.9979954244904029,0.006655633423141639,0.00224681740331722,-0.0628950479093056,0.023803299966493212,0.018634179452839857,9.782740949370677,0.008924739666513892,-0.002260040898685944,-0.0076595313365934075,2.0847054659581365,-0.5859616442324411,-1.193150950900343
29901,0.983,0.9979946347157151,0.0066469006452736104,0.0022371882102175146,-0.06290884500108654,-0.039040887436100576,0.01463944163674646,9.765443215464883,0.00827124669589428,-0.0018568639788736963,-0.011913622301323699,2.0930657816116818,-0.5735875245445077,-1.2012645439825314
29902,0.992,0.9979934251423559,0.006655079082292229,0.0022419405419715327,-0.06292699736713854,-0.060845469578213414,0.0063398127854729465,9.748142355479056,0.01200549738750736,0.001590956582039294,-0.013019330809030824,2.085759316581266,-0.5777609072020647,-1.2037199121969513
29903,1.000,0.9979940160568752,0.006656780666998327,0.0022426623721676464,-0.06291741929947468,-0.06094163556800301,0.0072547235332744075,9.74814111590749,0.01064034948229643,0.0007632581354069535,-0.006296931026779516,2.0947940968436733,-0.5772749658684355,-1.203902637541853
29904,1.008,0.997994059780621,0.0066592627943674685,0.002247637688936597,-0.06291628554237538,-0.09720940307605375,0.0595183000152219,9.766624795865463,0.010742386424446703,0.0017203041675802068,-0.008083413708387936,2.0837308327670025,-0.584255054791535,-1.1934184376815178
29905,1.017,0.9979951332418112,0.006660251468096024,0.0022444302288031795,-0.06289926556797071,-0.053476193587263375,0.0802973771025027,9.750498078013084,0.010537271396187979,-0.00019401619704200902,-0.004509446986674689,2.087702941091678,-0.5853173359207741,-1.2024131659339956
29906,1.025,0.9979953370170908,0.006663396662870657,0.0022497876705859805,-0.0628955077290446,-0.05614272696382211,0.056835085314572174,9.766611659725715,0.01074156642325843,0.0017198752683503721,-0.00808283452603592,2.0918804304794683,-0.5790047344021573,-1.2061049367509307
29907,1.033,0.9979950857213172,0.006669686474306282,0.0022456384389770824,-0.06289897667241195,-0.012407521641522071,0.07766899700152807,9.750482065508752,0.01179831207633123,-0.0003247948325506687,-0.009443420707562091,2.0837989020081267,-0.5806811910224033,-1.2027298831368822
29908,1.042,0.997994464846819,0.006680812451377801,0.002251559581141662,-0.06290743485117166,0.004303877814164067,0.040806909435675255,9.749304457125218,0.01275790690993669,0.0021438039991316035,-0.010549370539517338,2.0844985036169263,-0.590404653513551,-1.198237599405522
29909,1.050,0.9979943961299915,0.0066642964389360656,0.0022595147002396096,-0.06290999157071593,0.0015278315654293547,0.017255326806328446,9.765428971057746,0.006153911358064054,0.002229189580974946,-0.009188350286837116,2.085958547449373,-0.5818531630347674,-1.1975756466403213
29910,1.058,0.9979943824117844,0.0066745742494508575,0.0022433060165618444,-0.06290969965932108,0.023555142943085947,0.028806677679232062,9.73200502738109,0.012752290291635483,-0.003326359717286554,-0.009015614586120558,2.091386672900945,-0.5809508176459558,-1.205357594052055
29911,1.067,0.9979945747744272,0.006665183187522718,0.0022446068687913805,-0.06290759726687792,0.06485686017793603,0.025259494482315816,9.732003659870834,0.007966210498657011,0.0007396613985869285,-0.008081299927623454,2.088391422921492,-0.5752500737090642,-1.1963997661480408
29912,1.075,0.997995263431315,0.00667102482024342,0.00225206243496217,-0.0628957853222121,0.0401604759977726,-0.00904358235799729,9.78156039250498,0.011494537721633353,0.00227503770141242,-0.005613856490471779,2.095966464345344,-0.5789212896680214,-1.1972861655104314
29913,1.083,0.9979952344281557,0.00666946731993276,0.002250635884662094,-0.0628964617643481,0.04782597744793718,0.06477632551381003,9.733154113897456,0.009880647840372426,0.0002067517196957366,-0.008760717919463075,2.086440049993871,-0.5764730397256227,-1.1966465775121966
29914,1.092,0.9979956548068477,0.006667528811345765,0.0022465152237524724,-0.06289014402552358,0.028449212333577546,0.07911479724191438,9.750436831101313,0.009778494006182388,-0.000749685358419839,-0.006973491250525158,2.0891589073862598,-0.5840850982670895,-1.2011934315512027
29915,1.100,0.9979958868576188,0.006673096884558947,0.0022384368152998085,-0.06288615900075643,0.047922107337857005,0.06645042544183896,9.73314235672,0.011693071883315033,-0.0012822657009438738,-0.007653051425112413,2.0899522743915875,-0.5800137036179207,-1.2095276662436625
29916,1.108,0.9979960838272999,0.006663979412754108,0.0022397868197400216,-0.06288395183798458,-0.01524036937044499,0.06085376917168198,9.766561157201934,0.007964483733281192,0.0007385973781679837,-0.00808001310273271,2.083581926731084,-0.5751009783681527,-1.2064468247920488
29917,1.117,0.9979959719277918,0.006674199850945285,0.0022417064528308063,-0.0628845754094875,0.006656395979876952,0.07246358561592244,9.73312696122835,0.0126512986927092,0.001186108032069983,-0.00875925641370377,2.0918825370248215,-0.5743685895037864,-1.206393098949124
29918,1.125,0.9979947656441973,0.006684828070260821,0.0022325044984866154,-0.06290291522751218,-0.032137417437818894,0.1005801497343595,9.767685785236727,0.012952247441312646,-0.0014156569890530154,-0.012585032016546937,2.0928243186870197,-0.5865310303002064,-1.2016317289579213
29919,1.133,0.9979949587452399,0.006675423962384435,0.0022337993548415007,-0.06290080424328344,-0.015297047827799849,0.06358199759018127,9.76654368839595,0.007963226616036266,0.0007380253113071446,-0.00807909378592149,2.0872241211921048,-0.5777609072020649,-1.2037092040701913
29920,1.142,0.9979955524668106,0.006676736238610583,0.002216162820211972,-0.06289186809135336,-0.01775458926476293,0.04003500006461947,9.78268962554782,0.010732498690863266,-0.0037510034288603888,-0.006543632721139472,2.0855446397110566,-0.5904950519755318,-1.2077512614980295
29921,1.150,0.9979952633164441,0.006668033707170225,0.0022213795562327655,-0.06289719546441429,-0.03690011302614332,0.05592772470881199,9.749248594372435,0.008063677546826018,0.0016933384094421555,-0.009865678380913262,2.08922180919047,-0.5778188549341038,-1.2097980040317422
29922,1.158,0.9979955252213543,0.006673884150927651,0.0022128019541373355,-0.06289272148671542,-0.02266448876516678,-0.005420653858773863,9.764273863436966,0.01169025295703732,-0.0012826518230113406,-0.0076501506949756114,2.0861941143406026,-0.5767148514377964,-1.1964019212540848
29923,1.167,0.9979956353696009,0.006676255997357411,0.002217444536496188,-0.0628905583439402,-0.020110723087257365,0.019793452680530354,9.748117371205604,0.010733376784338902,0.0017178533206187465,-0.008077914184673882,2.086230077593415,-0.5728551356801415,-1.2013214687827922
29924,1.175,0.9979952257803986,0.006694359479275125,0.00221734223876781,-0.06289513704643702,0.004159942922327402,0.05430865998115163,9.749238658173295,0.014562002336381448,0.0006530856041000561,-0.009435907970088465,2.096536451717046,-0.5843987651669915,-1.2084612660267309
29925,1.183,0.9979962457277257,0.00667959063386567,0.0022047125764543007,-0.06288096552045146,0.0016713012456686601,0.030880331863140573,9.765395367712632,0.006902101868244727,-0.0026867961716561723,-0.005182889360214206,2.090632516425146,-0.5858055951636849,-1.2023871139857771
29926,1.192,0.9979963594597414,0.006667496671880935,0.0022190973369243462,-0.06287993797900154,0.0016267838957122031,0.03144625573007646,9.76539356949495,0.007003940448489078,0.003737166389282162,-0.008505992819158705,2.0894244398322392,-0.5843570427999235,-1.2041188061987311
29927,1.200,0.9979954221712174,0.006683048034824951,0.00223493278002937,-0.0628926010729947,0.0232568338972877,0.04304779673387198,9.731953172366703,0.013704557806809858,0.004608499515749316,-0.011650282263921034,2.082803022969765,-0.5765054904555643,-1.2000910712088793
29928,1.208,0.9979958760516024,0.0066810618713927915,0.002229840458518652,-0.06288579018980024,0.0036885296414684646,0.05754152687521337,9.749220299746998,0.009773693533286562,-0.0007509575361898129,-0.006968383155671885,2.091844738332338,-0.5789583762165261,-1.2012224747798126
29929,1.217,0.997995848700483,0.006679476062624213,0.0022284036828573188,-0.06288644363579729,0.0037069550546419967,0.05833989561763281,9.749215548005898,0.009874051060238706,0.0002039039095398033,-0.00875511044823971,2.089667416258577,-0.5753219288967923,-1.2039586587643074
29930,1.225,0.9979957606930712,0.006677976523047906,0.0022275150460696696,-0.06288803101493891,-0.018108161093205177,0.049937202151803466,9.731931198412632,0.009873643750007552,0.0002037598125453856,-0.00875476427701645,2.0905583762332154,-0.5739900211440007,-1.1922452005191975
29931,1.233,0.9979958715290337,0.006680333099819903,0.002232154744476203,-0.0628858572802928,-0.037601029769881375,0.06431156107083101,9.749194217823442,0.010729781660266403,0.0017168973833815936,-0.008075294620804856,2.0911286347105977,-0.5755614226996847,-1.2034573865930862
29932,1.242,0.9979960271684759,0.006685996296358752,0.002225222830057885,-0.06288303104034541,0.006139337064453672,0.08518266731998872,9.733024295203752,0.011686627761894318,-0.0012834788507108982,-0.0076455165613993434,2.089841560959063,-0.5808465117282857,-1.194382762743799
29933,1.250,0.9979964824104867,0.006683702131932307,0.0022198644630477813,-0.06287623894503387,-0.02068653068539633,0.028257212966675074,9.748095305748343,0.009771980514978702,-0.0007514799532062213,-0.006966651845870493,2.0896368237719405,-0.5789444687608368,-1.1997737983786168
29934,1.258,0.9979966787005534,0.0066747524465377486,0.0022222884849489033,-0.06287398839211544,-0.03754771355004455,0.06680694278874576,9.749177641370213,0.007957845451007086,0.0007350983218016144,-0.008075014766639988,2.0928284978895153,-0.5777469997463754,-1.2022034176596095
29935,1.267,0.9979964307810993,0.006680988987277607,0.00221812468773375,-0.06287740816230074,0.020499792429115947,0.025455261347021484,9.748103420913031,0.011785785269679936,-0.00032926273321590323,-0.00943145773538497,2.09230951859053,-0.5830784469606075,-1.19800590171806
29936,1.275,0.9979967009426214,0.006660185688740779,0.0022170093546878566,-0.0628753664303971,0.0011054345543660001,0.039686870524836326,9.765363628193983,0.00518675842370302,-0.0002466898933786807,-0.008075009247728252,2.0930830854738844,-0.5814228515238957,-1.2036316038529116
29937,1.283,0.9979961921305621,0.006659286331163944,0.0022194869078224727,-0.06288344993974113,0.020482274795878126,0.026763389160811495,9.748099952967834,0.00997101775644565,0.0011570311835194125,-0.010539576525553243,2.085018143736009,-0.5755521510625585,-1.2025255113936957
29938,1.292,0.9979966129960022,0.006657144361278962,0.0022144719813872453,-0.06287717384954077,0.0616708705460707,0.023254722772099633,9.748111491070619,0.00977041155861338,-0.0007516312297707775,-0.0069650266366816345,2.089852285547307,-0.5806162895625195,-1.1958498191824838
29939,1.300,0.9979967245530204,0.006659485552579818,0.0022191101500455414,-0.06287499171976037,0.0180534167262548,0.005628761441763742,9.713563625059939,0.010726150794747646,0.0017161301383197963,-0.008073139759236085,2.087234591618773,-0.5811926293581297,-1.205141492798636
29940,1.308,0.9979966240053081,0.006670066950383732,0.002221642872291817,-0.06287537660987684,0.022670555131685116,0.05212626985366916,9.78262251406347,0.012639659169219731,0.0011839603762870848,-0.008750766470713947,2.0821041046014925,-0.5826527712682988,-1.2046768179610878
29941,1.317,0.9979961156458301,0.006669159433993354,0.0022241164019126043,-0.0628834539009258,0.042168943714797846,0.041011902044297874,9.714640924640518,0.009969139776247738,0.00115590663647633,-0.010538067690440677,2.0872155370374244,-0.5728667252265492,-1.2025349455243983
29942,1.325,0.9979967974870333,0.006674059325648075,0.0022120794739753404,-0.06287253646978845,0.0033655628135501967,0.06896954510960414,9.749146269496112,0.011583143400524422,-0.002237885791216018,-0.005854157601874542,2.09015997080564,-0.5907090487763269,-1.20454143430138
29943,1.333,0.9979969923927576,0.006664617923914158,0.002213358089342593,-0.06287039914703735,0.0034226432964041954,0.06976339493680048,9.749140599156888,0.007954584198420725,0.0007335136914472223,-0.00807256785500253,2.0837810389904563,-0.5809021415510431,-1.2002863343039736
29944,1.342,0.997996198788451,0.006668239103295926,0.0022072828069339854,-0.0628828251088854,-0.05957055461522431,0.0655826137294484,9.731849258514782,0.011025721262510049,-0.0008907841016419607,-0.011893209324903321,2.093560595201044,-0.5821413329325724,-1.2021563423439414
29945,1.350,0.9979963109472522,0.006670567985039291,0.002211918747026427,-0.06288063512632276,0.0008490637221378993,0.047141274173036624,9.765330516177112,0.010723217608927247,0.0017154336002250866,-0.00807130428430323,2.0945127740371654,-0.573076086208781,-1.198817240564911
29946,1.358,0.9979962365396495,0.006669172362163013,0.002211508109516673,-0.06288197853583867,-0.04044177234097097,0.05226738208666068,9.765308612461501,0.009867170993493726,0.00020115960787236693,-0.008749219275437908,2.0878975128460238,-0.5793933235459612,-1.1956315628230212
29947,1.367,0.9979962109640692,0.0066675554641152796,0.0022100620707419653,-0.06288260674573179,-0.06477596813964367,0.0195365378297343,9.764243070762866,0.00986676512290265,0.00020101582265522034,-0.008748874160326105,2.082793811883196,-0.5806441044738984,-1.1988310523111612
29948,1.375,0.9979968181735521,0.006669648816392089,0.002211585942106993,-0.06287269349847559,-0.018546360430865872,0.06463057410874866,9.731843885434493,0.010622500994497045,0.0007617405097399203,-0.0062832124882700804,2.0901144012755193,-0.5786864316836922,-1.1983078082590441
29949,1.383,0.9979972748541583,0.00666733246983094,0.0022062247850976715,-0.0628658781343896,-0.018726451996293237,0.06398744853058591,9.782560464649587,0.009766704596834045,-0.0007526697407614723,-0.006961022458715767,2.088179428696208,-0.5750476664546768,-1.20079808445719
29950,1.392,0.9979964606700874,0.006659458771566498,0.0022161230653584205,-0.06287928830233865,0.0200518956385994,0.03763288784141231,9.748064944791986,0.008150522704780824,0.002638652795604923,-0.011645010681469406,2.0891501368464236,-0.581876342127583,-1.1999936766845671
29951,1.400,0.9979974966182047,0.00664542046828756,0.0022222893847300175,-0.0628641118642967,-0.02134299580176493,0.04251562638595104,9.748042129841552,0.006794349638132823,0.0018253047751037685,-0.004927931082204716,2.085976478243463,-0.580655694020306,-1.200028466862627
29952,1.408,0.9979975289128098,0.006659210810703779,0.002212085406588903,-0.06286249973918301,0.01986547184911821,0.03907044328379217,9.748059673957727,0.01359293395873424,-0.0018163516722807976,-0.008314181686673628,2.0867159003695734,-0.5823738730076201,-1.2009833802620256
29953,1.417,0.9979972833052607,0.006665414237004712,0.0022079137604540753,-0.06286588808880988,0.017427577108069813,0.01583467270721269,9.764273279981401,0.011777952943246218,-0.00033181195314575427,-0.009423856050720549,2.0913920267230144,-0.5809577713738004,-1.2060899633477224
29954,1.425,0.9979977483461315,0.006663432536153795,0.0022028253996614236,-0.0628588937473962,0.039424896462378116,0.027436330806579527,9.730811036400748,0.009765071761023555,-0.0007530833319428267,-0.006959264503877014,2.0854796089410637,-0.5760056416662459,-1.1988554598450718
29955,1.433,0.9979977235583822,0.00666180235395843,0.0022013744664941296,-0.06285951091236933,-0.0017665671659357427,0.0324982668456041,9.730786948106779,0.009863637368410887,0.00019957559088725225,-0.008746198406381776,2.090590295836372,-0.5769612989685334,-1.1966116021250117
29956,1.442,0.9979969533972528,0.006668917947885151,0.0022020589040249085,-0.06287095895395625,0.044267554735846516,0.07620845073565383,9.749080488981104,0.011875356151612013,0.0006203768610422313,-0.011209868648915433,2.0919000103280747,-0.5797626202686206,-1.2087833372929975
29957,1.450,0.9979981274518338,0.006658810622770594,0.0022143076936639193,-0.06285296083050763,0.022326043217816432,0.06771907679718354,9.731814945825407,0.007647328419475326,0.0033395756410140045,-0.004249420250760649,2.0908596347145356,-0.5738200646195551,-1.2000576728325423
29958,1.458,0.9979969804839222,0.006669592615200933,0.002205582451397322,-0.06287033390536632,0.002982804346173784,0.0835285338383715,9.698321535249345,0.0129328913044111,-0.0014265932282067977,-0.012563170845242074,2.0911086990357854,-0.5799302588837846,-1.2007303112566834
29959,1.467,0.9979975758721972,0.006671201057792806,0.0022063035679112893,-0.06286068607827186,-0.021460172222511113,0.04950291026912074,9.748008895410923,0.010618187159043821,0.0007613615817571316,-0.006279861540419201,2.0901339133477053,-0.580420836035977,-1.2009769374117136
29960,1.475,0.9979976674489468,0.006673120248757755,0.002192854119230089,-0.06285949907069509,0.022343677591852,0.07038258453483119,9.731796008311905,0.010821463754506197,-0.002800233037687469,-0.008311022349203247,2.0888861179021183,-0.5855127894473168,-1.1972753395780056
29961,1.483,0.9979976432685241,0.006671479168396078,0.002191399557617544,-0.06286010789170174,0.019935571278244097,0.046965100913576266,9.748024689440232,0.009861108177258942,0.00019847228526644907,-0.00874408613697024,2.082118483124975,-0.5812065368138188,-1.2066437098336311
29962,1.492,0.9979970418156888,0.0066670959777828465,0.0021879784759109076,-0.06287024024565677,-0.023782424643784106,0.02772284135562843,9.764233352010649,0.009104438037821318,-0.00036452873971385395,-0.01120837386855993,2.085308406523404,-0.5795184906471651,-1.2088338417107665
29963,1.500,0.997997279202986,0.006672587577395221,0.002179893092462159,-0.0628661701121134,-0.02371750395045625,0.02856637115754269,9.76423108006678,0.011674962602488419,-0.001285377780936634,-0.007632391048473327,2.0923527388815035,-0.5775190954898908,-1.2039181665724368
29964,1.508,0.9979980588944953,0.006666395874988249,0.0021832655210561607,-0.06285433127893628,-0.06726234703292705,0.010780914987656945,9.729720822671567,0.008703082151409886,0.0012927847953354405,-0.005602352822760044,2.0843101159457986,-0.5843732681648943,-1.2058651463322823
29965,1.517,0.9979980758620327,0.006679712347580012,0.0021724579639476795,-0.0628530225608033,-0.023699794387095654,0.030299617991650353,9.76422589982802,0.013587176851741909,-0.001817258380968235,-0.008307738334550329,2.090371281790397,-0.5750407127268321,-1.2000496529713822
29966,1.525,0.9979978207611471,0.006686128115569917,0.002168537549055989,-0.06285652624606952,-0.023614547558720306,0.03132958450955213,9.764222854541053,0.011771820835868665,-0.0003340741160839812,-0.009418514261632743,2.088428594682089,-0.579693082990174,-1.2014846299654267
29967,1.533,0.9979977283893943,0.006696977439117555,0.0021892456412063556,-0.06285612003864359,-0.006887048683964661,-0.005478438722009772,9.763242819930491,0.012519528449179642,0.00569491419808851,-0.00849829470203186,2.087939168803006,-0.5706579690870429,-1.2013298365943832
29968,1.542,0.9979972401116775,0.006684252917513467,0.002188858091686829,-0.06286523993960721,-0.021579182983147403,0.05736474454705544,9.747965536108145,0.00718910571066477,0.00016483409324569007,-0.010529958030066082,2.090149873149284,-0.5819064749482433,-1.2031601382146206
29969,1.550,0.9979972168013842,0.006682597644533273,0.0021873984765045894,-0.06286583677417976,-0.026411902764545896,0.0109410294974004,9.729740861259634,0.009857817617765736,0.00019707774548203134,-0.008741149237389627,2.090609841796769,-0.5782074440779075,-1.1992853669723798
29970,1.558,0.9979976657364747,0.006680593189899282,0.0021827198597243426,-0.0628590852080508,0.02213024846205591,0.07887826076872659,9.73173134399663,0.009759581639027324,-0.0007545119688717754,-0.006953459901095808,2.0867306516633684,-0.5755567868811216,-1.2030012647762542
29971,1.567,0.9979975597455115,0.006690697449888796,0.002184625928572179,-0.06285962710031726,0.019616039913033578,0.05554207730699194,9.747980242967264,0.012623794116781465,0.0011807702081531495,-0.008739344775417232,2.0949917972660006,-0.5777029594700259,-1.1975490165969074
29972,1.575,0.9979968377649467,0.006713407183063669,0.002194659603083639,-0.06286831828821006,0.04137921059071218,0.06738384837542204,9.714497194928994,0.015487567849210914,0.0031159288958808114,-0.01052499646658058,2.090370519305669,-0.5860265456923247,-1.1999453498406618
29973,1.583,0.9979977380494468,0.006695402583908092,0.002194732157527027,-0.06285594310153975,-0.00015915134647000544,0.07110213492063383,9.765185483452386,0.005933247359756181,0.00030792445486705467,-0.005601218856980212,2.0813513375423094,-0.5674889198266858,-1.201896401377456
29974,1.592,0.9979975829680022,0.006704886903953881,0.002178228933656134,-0.06285796847134022,0.041177419095660216,0.06765365316749986,9.765211065750737,0.012729576701166631,-0.003333618740203252,-0.008979330028857166,2.0852940110558165,-0.5812088547231005,-1.2068646319908738
29975,1.600,0.9979977808122207,0.006695394391994952,0.0021794852214154442,-0.06285579553222212,0.01951517570421351,0.05915698819911527,9.747959175323375,0.007942745958648339,0.0007272349999041442,-0.008063693130981693,2.097721667296419,-0.580934592280985,-1.203602330479537
29976,1.608,0.997997129385658,0.006690741829927848,0.0021760940997063234,-0.062866750561973,0.01718893390111122,0.03696174002433931,9.713496500131598,0.009098597778418939,-0.00036919130743500486,-0.011202650027945224,2.0886943812896432,-0.5763030832011771,-1.204444772323195
29977,1.617,0.9979975887334142,0.006688384595712257,0.0021707256058264087,-0.06285989456032667,-0.007187642407778561,0.0027955903821930135,9.76324373743997,0.009757157131584204,-0.0007551378238397096,-0.006950947167518465,2.080142142638468,-0.5821529224789802,-1.2034751156653536
29978,1.625,0.9979974776515876,0.00669864073689699,0.0021725466327365867,-0.06286050313571846,-0.007205138967720846,0.0037054345726064684,9.763243423457304,0.012620149129535204,0.0011800497944235103,-0.008736782772133944,2.087614490152685,-0.5739714778697482,-1.19031363198427
29979,1.633,0.9979974553675309,0.006696967564646212,0.0021710805103754113,-0.06286108585436104,-0.0023052859323983116,0.05308950917759651,9.730696279152662,0.00985366101933742,0.00019522401085521804,-0.008737649104920182,2.0896203556472104,-0.5847827184922322,-1.1975210621552295
29980,1.642,0.997997296495618,0.006691941008077676,0.0021650199291981054,-0.06286435239219022,-0.024199476974256662,0.04316521705883314,9.76417627152239,0.008999742151903647,-0.0013209646125966082,-0.009413609141351961,2.0799196271542004,-0.5792511819328943,-1.20643419170401
29981,1.650,0.9979969163220768,0.006694156057632596,0.0021547437193848405,-0.06287050473637196,-0.026547868837981804,0.019740389537170167,9.780450291384755,0.010911636716445008,-0.0018524099967573136,-0.01008817326631517,2.090871449201829,-0.5836014748427417,-1.20167382062846
29982,1.658,0.9979968419766851,0.006705274201018566,0.002175419436852714,-0.06286978807604278,-0.024233629628842464,0.044924330474095706,9.764168254723948,0.012509378839208165,0.005693738560741662,-0.00849564109909189,2.0910817435402818,-0.5825809160805705,-1.197042968457502
29983,1.667,0.9979970405507785,0.006695769077536314,0.002176670911216034,-0.06286760558580938,-0.04625530079902112,0.03638914212256925,9.74692389355897,0.00793979028491283,0.0007258482368923564,-0.008061393565907342,2.0893872850157496,-0.5796699038973583,-1.1990362602286946
29984,1.675,0.997997289056813,0.006701766533496189,0.002169660477669635,-0.06286326378732333,-0.024478120808313176,0.04655068156204797,9.764160025215588,0.011667034885874773,-0.0012869518008906946,-0.007622984564805383,2.0874249333383075,-0.5847850364015138,-1.1977812474439256
29985,1.683,0.9979967855386644,0.006700768234956896,0.002172092859408835,-0.06287127939023235,-0.022008231803658705,0.07165609748541525,9.747869999971794,0.009947981111675613,0.0011443570424189062,-0.01052297063938041,2.0835762001387037,-0.5804648763123266,-1.2056634628546958
29986,1.692,0.997997141470586,0.0066949405728800185,0.0021608899186339957,-0.06286663615961033,-0.0049675628232918045,0.03464741492518419,9.746950671219604,0.008900998429332533,-0.002272272119414563,-0.007623570653783906,2.088915518825076,-0.5733433949230522,-1.201297201522367
29987,1.700,0.9979967756451525,0.006697870121970839,0.0021694123399189813,-0.06287183779569275,0.019232878271141698,0.06905027269629006,9.747894678577927,0.010800037413524607,0.0026604170029643458,-0.009846456680453,2.0854845561046123,-0.58187170630902,-1.1995322008043554
29988,1.708,0.9979965886923396,0.006692451590317701,0.0021624266733870725,-0.06287562294759164,0.019172968425042992,0.0698558903861917,9.747889055450177,0.00899701164631285,-0.0013226394996194329,-0.009410251273184045,2.092327737434407,-0.5777307743814045,-1.2004981253453046
29989,1.717,0.9979972000266166,0.006694731526241374,0.002181951039764568,-0.06286500137982726,-0.002745082818876726,0.06126542041102059,9.730648124499604,0.010496318202294304,0.005274600662591718,-0.0060324159792213335,2.092277717596109,-0.578398261785887,-1.1936557250436912
29990,1.725,0.9979974924815269,0.00668880924787029,0.002171849174761238,-0.06286133869551835,0.01642229044424638,0.04721560834817027,9.764173703286119,0.008900078945581988,-0.002272782992245217,-0.00762187306402493,2.0859853843361407,-0.5809114131881692,-1.2012467645080573
29991,1.733,0.9979968521220752,0.006683868365494691,0.002168184425113206,-0.06287215627287493,0.03353987284494665,0.010181957533182042,9.763271775686661,0.009092469021428585,-0.00037365487308785897,-0.011196605852842738,2.0893964452700025,-0.5762636787433906,-1.2002893255843647
29992,1.742,0.9979977775922181,0.006681063515631136,0.0021594596491262175,-0.06285806269141889,0.033623746731029656,0.010946934510677662,9.76327065980873,0.009655922875805455,-0.0017057321901333695,-0.005158034693384687,2.08718708498435,-0.5713648609493119,-1.1986428830316
29993,1.750,0.9979977566776959,0.006679366775551435,0.0021579870054784225,-0.06285862564397285,0.016666229335398804,0.04950726543913544,9.76416193986062,0.009848081137923818,0.0001931043561489548,-0.008732856669313782,2.086459070687011,-0.585287203100114,-1.1992484890917354
29994,1.758,0.9979977208596846,0.0066779757136478735,0.0021572341474767496,-0.06285936795798057,0.036120602949152016,0.03676365649942553,9.746965315625516,0.009847679267722769,0.0001929614510078214,-0.008732514459813637,2.0778956275363245,-0.5725669657823365,-1.1967461271425524
29995,1.767,0.9979975626057376,0.006672345451434754,0.002149667161456413,-0.06286273753408307,0.011963609897615973,0.003914491245835158,9.746036697233055,0.008994688353106609,-0.0013240649263098214,-0.009407638431419448,2.08083683097193,-0.5855220610844432,-1.1983107266694089
29996,1.775,0.9979973390273388,0.006678849089682452,0.0021458243246043622,-0.06286572760381384,0.016752671642756917,0.05192325682929409,9.764149244382995,0.011758556775334605,-0.0003382648895611103,-0.009405714551077499,2.089182480052206,-0.5787443794157311,-1.204418024474115
29997,1.783,0.9979979508736858,0.006681110819624931,0.002165350075670282,-0.06285510376405823,-0.024676226783207994,0.056969126223786096,9.764104298155353,0.010492016560493022,0.005274515391280148,-0.006031743842861564,2.100398981864236,-0.5699371697690845,-1.2024663865517513
29998,1.792,0.9979972237184725,0.006676057632269788,0.002162430794144428,-0.06286728559253223,0.013899327794869765,0.029414566467103734,9.780452133979184,0.009089659662057178,-0.0003757469804163773,-0.011193877936468375,2.0899326437106653,-0.5799882066158235,-1.2068423121595475
29999,1.800,0.9979968589854058,0.006678960598145137,0.002170946615108177,-0.06287247355868346,-0.003054053889984486,0.06923643143440628,9.730594580570592,0.010793803030087742,0.0026583034202857987,-0.009842954774176262,2.0952752096737552,-0.5775098238527646,-1.2029202579246931
30000,1.808,0.9979974115538176,0.00667992041103651,0.0021532460110369484,-0.06286420863097288,-0.005456718212923499,0.045897795570393106,9.746903926283741,0.010713272992921716,-0.003753715315107387,-0.0065037385019580726,2.0903727614038625,-0.5794373638223107,-1.2002520548176498
30001,1.817,0.9979970470620433,0.006682818531673116,0.0021617602174361476,-0.06286939465811316,-0.02489655502053212,0.06031728202456789,9.764083629390692,0.010792673069743925,0.0026578349235438187,-0.009842472338629962,2.085766895557424,-0.5714228086813508,-1.2047566686222577
30002,1.825,0.9979968927903801,0.006692852626334927,0.002164031507546841,-0.0628706980405301,-0.025057315656547917,0.06126737731917487,9.764077303785218,0.012608101195018232,0.001178087583147112,-0.008727786391570564,2.089865099736799,-0.5759940521198381,-1.1976027199720125
30003,1.833,0.9979967356052669,0.006687210378504263,0.0021564577653152535,-0.06287405369857578,-0.0514956746857582,0.005539825236591659,9.728762813527625,0.008992009269279316,-0.0013259225775897909,-0.00940412914125249,2.088154156143431,-0.5791654192894766,-1.1973409576724685
30004,1.842,0.9979965260545716,0.006709334066172753,0.0021627970383068093,-0.06287480519545616,-0.005610202072180516,0.04958654938345748,9.746885774090929,0.015370395459940775,0.0021644494817258803,-0.008725245707053764,2.0857788964298725,-0.578518793068528,-1.206398312739018
30005,1.850,0.9979964645501205,0.006692651714829905,0.0021706471480338755,-0.0628772888207155,-0.027532477700352637,0.04102651035748143,9.72965740816084,0.006115736791200835,0.002201012196899265,-0.009169799458881935,2.0913008931390964,-0.5825484653506288,-1.1936234603899258
30006,1.858,0.997996355338937,0.006702401330205059,0.002154422163300193,-0.06287854174318906,-0.0057489528931569875,0.05122317256829466,9.746877227701132,0.012718469718458194,-0.003336458880242795,-0.00896117320444048,2.080345671317806,-0.5757522404076643,-1.1979187637418576
30007,1.867,0.997996555879264,0.006692858403847114,0.002155659209873618,-0.06287633285175373,-0.0033939293985719913,0.07504663527146203,9.781270786113845,0.00793099410390351,0.0007215233315963247,-0.00805476482725471,2.091390225171553,-0.5811995830859742,-1.2058435224018174
30008,1.875,0.9979961827341655,0.006695956716824737,0.002164435344384788,-0.06288162395582038,0.013523167880778477,0.038062152782345295,9.780422831974228,0.010788829689080237,0.0026564240357952575,-0.009840276351473304,2.083708090362205,-0.5776334221915791,-1.190307419278723
30009,1.883,0.9979963007835597,0.006698158689782665,0.0021690511141771026,-0.0628793567855286,-0.04719712534423989,0.0577958416412848,9.746815952446187,0.010693254797435936,0.0017081955554462292,-0.008052218783966286,2.0917754266952198,-0.5747177741898036,-1.1917410773410708
30010,1.892,0.9979957725410072,0.006697601549073078,0.0021732206275883897,-0.06288765567161826,0.010977620667066413,0.0167858275414765,9.746024188993442,0.009936272897807583,0.0011382551003154863,-0.010514125086269132,2.0806056296683506,-0.5791909162915737,-1.2000816370781764
30011,1.900,0.9979955337152472,0.006703694482176623,0.0021690218083377515,-0.06289094139146241,0.01561090938561807,0.0648617091233265,9.7640737605411,0.011752027933768262,-0.0003404846595767539,-0.00939867786535894,2.089864659190068,-0.5823414222776783,-1.1975424559409298
30012,1.908,0.9979962377568037,0.006693946815179923,0.002166923497875145,-0.06288087898443638,0.030279734265395652,0.0037219481552425333,9.779581048715519,0.00783439407591108,-0.00022709347004833667,-0.006265537147710621,2.0877232495368023,-0.5755776480646556,-1.205191233912084
30013,1.917,0.9979965354748512,0.006715031068286216,0.0021683107599434976,-0.06287385757526663,-0.008390296194025464,0.03413970624756464,9.712458014759862,0.015270188933532521,0.0012166550837961268,-0.006933795539252627,2.0791691076695358,-0.583134076783365,-1.2039612292242414
30014,1.925,0.997995777745735,0.0067069832278801355,0.002177052416746894,-0.06288644067238845,-0.006489751801212783,0.056908443104871885,9.797567875019114,0.008118046426922926,0.002615266929312704,-0.011628007839968823,2.0913739434319787,-0.5843524069813604,-1.2036162824992727
30015,1.933,0.9979963783110656,0.006708497913533606,0.002177775022374311,-0.06287672247893336,0.032361957572140776,0.030576604001894284,9.763233181312728,0.01059583743011509,0.0007599847346186948,-0.006262529668071165,2.088184325027441,-0.581646119961817,-1.2014678718744254
30016,1.942,0.9979971275784126,0.0067137230757481885,0.002166216185773702,-0.06286467032552337,0.015338977442242448,0.06921779407018092,9.764044282771394,0.011560669234179602,-0.0022362789439074136,-0.00582103746255121,2.085480749672429,-0.5852848851908324,-1.199011504744353
30017,1.950,0.997997109302551,0.0067119851470968704,0.00216472939941562,-0.06286519725384355,0.015418048268297506,0.07008932021739575,9.764037939869976,0.009838470384402803,0.00018888171301815568,-0.008723998702650325,2.0912866332243496,-0.5822857924549211,-1.191672793448828
30018,1.958,0.9979966501517908,0.006711723247629011,0.0021683459750618857,-0.06287238927052492,-0.028284966837369863,0.05078428839720492,9.780333495280004,0.0099325458073551,0.0011359838953895205,-0.010511371295472617,2.093549413121963,-0.5889630548776341,-1.2006267040268246
30019,1.967,0.9979971139411757,0.006709307439532314,0.002162968827379514,-0.06286547005008329,-0.011034323405621967,0.015012593603828707,9.728794613696477,0.009743261673868733,-0.0007585080190762797,-0.0069355266043256035,2.0845223473885537,-0.5811578607189063,-1.2014992778860238
30020,1.975,0.9979970045992639,0.006704301629610907,0.0021559211888297182,-0.06286798194935853,-0.030451815763737154,0.029319538157851256,9.745953150210696,0.008986318895485134,-0.001329852152682856,-0.00939702991651043,2.091119050853718,-0.5850708883900372,-1.2021463750536825
30021,1.983,0.997997302995322,0.006725368159867418,0.002157311386411801,-0.0628609468967842,-0.010947242127845081,0.016753438939101892,9.728791873919853,0.015265866753170994,0.0012170033274963412,-0.0069306842154247565,2.0911301821004837,-0.5789815553093417,-1.2036690598287514
30022,1.992,0.9979970732232065,0.006731836135031523,0.002153587292972324,-0.06286403011211654,-0.030486864004887815,0.031397176043503186,9.745946570418862,0.011747084378243188,-0.00034262913697361914,-0.009394004126592071,2.0884216426378175,-0.5769983855170385,-1.2005336338920458
30023,2.000,0.9979972754256765,0.006722268734756693,0.0021548127160323496,-0.06286180182068883,-0.028280089627253174,0.055230279083595006,9.780309412018644,0.007925224582363619,0.0007182601781672922,-0.00805020243957779,2.0842426566924566,-0.5791584655616319,-1.196637143381494
30024,2.008,0.9979979964651114,0.006727974493286987,0.0021623192522358006,-0.0628494851712661,-0.00890035581858387,0.042468210568439246,9.763150363036663,0.011442898540457902,0.0022779970720393163,-0.005586160079097069,2.0903498665021187,-0.5750128978154534,-1.1971201757887113
30025,2.017,0.9979974973522671,0.006726895998700898,0.0021647151289288353,-0.06285744313321892,-0.006459644290232103,0.0686512850081236,9.696046780970319,0.009929295751761685,0.001133940161119396,-0.010508955699896851,2.088873964532724,-0.580613971653238,-1.195612834835101
30026,2.025,0.9979981670920254,0.006717709505756799,0.0021820315235506187,-0.06284719244631709,-0.006865322520688539,0.0682315335306757,9.746772277482417,0.0077148170344622955,0.00428548183528228,-0.006030420608364979,2.0818847008411017,-0.5863471663200716,-1.2080615583184238
30027,2.033,0.9979987683668873,0.006719205509388896,0.0021827531918375363,-0.06283745860553747,-0.004674420535383073,0.09315086637923461,9.730394388816709,0.010591296565950677,0.0007593106068444799,-0.006258840605453353,2.0886474562311172,-0.5838108358249737,-1.1980257184929122
30028,2.042,0.9979986649412981,0.006714080432437445,0.002175168479308392,-0.0628399120099685,0.012454377765344471,0.05621882437333166,9.729612471547114,0.00898394752056657,-0.0013318876359787212,-0.00939363410398882,2.0881652026696718,-0.5742967343160581,-1.1988520532107907
30029,2.050,0.9979991296048385,0.006711651863413462,0.002169788089458103,-0.06283297746324419,-0.009370705045332899,0.04635510923741992,9.763132240613324,0.009740153211853241,-0.0007595432319652147,-0.006931909777724666,2.088837899615282,-0.5859384651396256,-1.1906793802222975
30030,2.058,0.9979987666889991,0.006715038943279912,0.002179552726997997,-0.06283804173538093,0.05129444007616031,0.029594702286126373,9.746041044416037,0.010777579750794741,0.0026516092635748894,-0.009833748896358685,2.0908930000429478,-0.5816762527824773,-1.2046218405899256
30031,2.067,0.9979981315575778,0.006710028959791795,0.0021758413128459314,-0.06284879182231116,-0.014149016306074971,0.0007644653190866952,9.74515381294234,0.009076581442899292,-0.00038635902547820447,-0.011180264958744848,2.0881971731051427,-0.5765356232762247,-1.2032254083586529
30032,2.075,0.9979980971451206,0.006708416006435188,0.0021745742596152406,-0.06284955430385429,-0.011750641792411769,0.025701590798301966,9.728771408612955,0.009832734037046903,0.0001863872963968708,-0.008718631231870886,2.0820866990746594,-0.5762822220176431,-1.2022958510066117
30033,2.083,0.9979978611809321,0.006714469650139214,0.0021703638965159585,-0.06285280022528109,-0.00972315574292129,0.048538167279986486,9.81384727568313,0.011742668213066866,-0.00034409873291266484,-0.009389217043571556,2.0884517437454084,-0.5804556046752004,-1.2046512767046056
30034,2.092,0.9979984056749474,0.006701099309483008,0.0021803961616972804,-0.06284523379610203,-0.012029358173176663,0.026229406622592093,9.779498294836834,0.006861305878315212,0.0027657600201251267,-0.0067029192232766505,2.082093566398404,-0.5801975675980556,-1.2032352578432457
30035,2.100,0.997998389325608,0.0066993326703260634,0.002178899715646195,-0.06284573367615441,-0.009581916910198331,0.05217165573710559,9.712376786089104,0.009831664260471247,0.00018596231722478346,-0.008717570121632384,2.0879454430830737,-0.5831178514183941,-1.2021881187737904
30036,2.108,0.9979985165766401,0.0067011395661735204,0.0021647652068654964,-0.0628440087115715,0.009671976314531643,0.03727309750683128,9.796695943000424,0.01079827919062747,-0.002809357681351161,-0.00827330200044525,2.08545797337942,-0.5791515118337873,-1.1958958506468598
30037,2.117,0.9979980187202688,0.006700038174964272,0.002167151266025104,-0.06285194964567305,0.009920168737250866,0.039206744864934834,9.745960916497204,0.00992394888421401,0.0011312496129328613,-0.010504856015655024,2.0882236372215996,-0.5809647251016451,-1.2068455335847033
30038,2.125,0.9979980556712469,0.006714225545094686,0.0021755224071150275,-0.06284955969612203,0.012141981470472001,0.06431949649955056,9.729562690424121,0.013440084517832176,0.0026938859653426375,-0.008040992047791955,2.0865504584325043,-0.5800345648014545,-1.2117497597597722
30039,2.133,0.9979978204551484,0.0067202680982196335,0.0021713087146429154,-0.06285279454350072,-0.012052418760697141,0.03164508160343377,9.728753523496271,0.011740073853034614,-0.0003450239263683415,-0.00938655409068007,2.085001997549275,-0.5767519379863014,-1.2003168142699459
30040,2.142,0.9979977882395517,0.006718514027771126,0.002169555839459146,-0.06285355412132201,-0.009855247865447626,0.05560667224828961,9.76308345384487,0.009829493835649824,0.00018500518423806374,-0.008715730728923756,2.097734261212545,-0.5794860399172235,-1.2053250992535243
30041,2.150,0.9979977725531539,0.006716736339444579,0.0021680552565162847,-0.06285404496366888,0.009465018594279855,0.041787038664543065,9.796677930399609,0.00982909595418479,0.00018486320933281983,-0.008715391462088924,2.086172495723064,-0.5796165919838826,-1.1934446299032218
30042,2.158,0.9979980139631789,0.0067231617135274846,0.002179745173120037,-0.06284912038450192,-0.009832508302596727,0.05833736691276143,9.712341459644769,0.011527748569265424,0.0032237757043575427,-0.007369358513461225,2.0862694067316783,-0.571929611198514,-1.2067014483404195
30043,2.167,0.9979986167280923,0.006724631601140336,0.0021804669413460556,-0.06283936586696429,0.011530595225670454,0.0677191306039148,9.780265003276753,0.010585042044850907,0.0007589664952779914,-0.006253871258108375,2.0791624775632616,-0.5758009165025769,-1.203054272250498
30044,2.175,0.9979981230275392,0.006738939180178283,0.002192034445308979,-0.06284527123997267,0.03343052133476948,0.08035984335649257,9.695989854963237,0.013529498370205234,0.003638261529846757,-0.009826710925471502,2.0825930505693084,-0.5728875864100831,-1.2047659624794749
30045,2.183,0.997998589621755,0.006736488565821325,0.002186649318769514,-0.06283831155869612,-0.010299644088609249,0.06114760808103795,9.712323687786913,0.009734978308465092,-0.0007609383168929687,-0.006925743320058111,2.087216474439527,-0.5850755242086004,-1.2026631762554876
30046,2.192,0.997997950237008,0.00673160219829465,0.0021828887372485634,-0.0628491197339798,-0.01044383614419088,0.06086288681563464,9.763051489264742,0.009070650431322439,-0.0003912254418773706,-0.011173975142719058,2.090613156849906,-0.5818740242183015,-1.1997388454592517
30047,2.200,0.9979985533659067,0.006733065347694126,0.002183609842326384,-0.06283935994771346,0.006700220697064726,0.02395853284869304,9.762335925464974,0.010583473951257045,0.0007588043385097971,-0.006252546632594957,2.090408538271518,-0.578263073900665,-1.2051461060255146
30048,2.208,0.9979983099381966,0.006739382189561758,0.0021799099931065014,-0.06284267722358984,0.006681864382946548,0.024866853596136117,9.762333667320991,0.011736249122780644,-0.0003466494938098939,-0.009382465378860495,2.0945516456845925,-0.5787420615064496,-1.2041346382441063
30049,2.217,0.9979978134572839,0.006738256487125843,0.002182283064878149,-0.06285059963611309,-0.015060039331665501,0.016183153919961082,9.74513904093375,0.009918419132003406,0.0011277642341977554,-0.010500327100015791,2.089681405067643,-0.5794906757357865,-1.205872240147816
30050,2.225,0.9979977764660345,0.006736606780544725,0.0021811079553567484,-0.06285140464638089,0.02829974781020116,0.03612012484981404,9.779520984384787,0.009825613044347176,0.00018315901431346324,-0.008711955881031245,2.0918648095599917,-0.5726365030607831,-1.2039680928950103
30051,2.233,0.9979977619181537,0.006734812230507472,0.0021796006426117783,-0.06285188025520991,-0.015130726055290774,0.017780465420101747,9.745136147888628,0.00982521601525032,0.00018301725056597747,-0.008711617242600613,2.085013964533514,-0.5843361816163894,-1.2019538226920077
30052,2.242,0.9979973841727777,0.006737765455048588,0.0021884044808338225,-0.06285725564160616,0.0064584557254407276,0.028189763936122936,9.762324787530327,0.010765860022649903,0.0026472310082706597,-0.009826959245085786,2.087976018625606,-0.5797394411758051,-1.2063706613121317
30053,2.250,0.9979971405077597,0.00674310138036516,0.002165375632992554,-0.06286134957569718,0.006546213905684663,0.029110372136096282,9.762322028467578,0.011853918255866455,-0.004861703767463785,-0.009605960991394128,2.08772666625457,-0.5777794504763172,-1.2056586194830519
30054,2.258,0.9979972052867442,0.006730328411592479,0.002179207059943334,-0.06286121201432937,-0.012946021533700695,0.04342728202877368,9.779435876457251,0.006945518648932635,0.003706729249813591,-0.008487870380525921,2.08822380666265,-0.5785234288870911,-1.206868712058197
30055,2.267,0.9979970982034829,0.006739576493923017,0.0021622857922076605,-0.06286250556781596,0.02846357931315951,0.041265004897186736,9.72877152830917,0.012701988584289172,-0.0033416231026343205,-0.008932736029995359,2.0933251130303385,-0.5860589964222667,-1.2033416569669249
30056,2.275,0.9979970116052269,0.006749847640856276,0.00216440946164022,-0.06286270528337908,-0.01287898303064157,0.04525620423884753,9.77942767505838,0.012581083357230943,0.001172663632724348,-0.008707055089626221,2.082815159395055,-0.5816484378710985,-1.2017512581044345
30057,2.283,0.9979974794194876,0.006747378935781632,0.0021590214626556856,-0.06285572826855683,0.011151818555205454,0.07989319370094623,9.780173570773165,0.009730799424622145,-0.0007618263254996784,-0.006921485586504235,2.0886838769747658,-0.573359620288023,-1.2030078479000517
30058,2.292,0.9979970907030312,0.006749599625307811,0.0021489286823072914,-0.0628620072754795,-0.012794814836301623,0.047003575251057694,9.779419542054614,0.010883069869256816,-0.0018685563585015736,-0.010050137487629849,2.085268958776405,-0.5821529224789802,-1.2034376372216937
30059,2.300,0.9979974325271532,0.006743890520132425,0.0021562384993103344,-0.06285694269845792,-0.012628071648291977,0.04879063207666993,9.728681913205184,0.008760815663622985,0.002232013720867872,-0.007368183737409839,2.0896388794849776,-0.5750407127268321,-1.2000550070347622
30060,2.308,0.9979974881059896,0.006730584149019408,0.002151768888779682,-0.06285763964545252,0.011354390384986177,0.08316515444949057,9.72942080144594,0.007063755288734022,-0.0008092102371211786,-0.008711502982400662,2.0837524174963318,-0.5818415734883597,-1.1963710933376819
30061,2.317,0.9979973918020296,0.006740498099072171,0.0021536534485352083,-0.0628580417969476,0.008992280964186609,0.059828249561732626,9.745857043729853,0.012578624140069335,0.001172268786934369,-0.008705373402216473,2.0869743282743376,-0.5821482866604171,-1.2029368982100288
30062,2.325,0.9979973076423037,0.006750249676679887,0.0021372609909229494,-0.06285889104551755,-0.014962534266575246,0.027117833691696867,9.74511489988353,0.012699326881998863,-0.0033424621260444215,-0.008928911571075046,2.094066743366432,-0.5816762527824773,-1.2045986396486124
30063,2.333,0.997998749277848,0.006747123674392889,0.002142929702546039,-0.06283614098799906,-0.012750195399731018,0.05117640453101145,9.779398653029668,0.009424526018897133,0.0018656307129473434,-0.003119620644998239,2.0911514787800263,-0.5807182775709082,-1.206582312079977
30064,2.342,0.9979982500480206,0.00674623593797783,0.0021456302581042783,-0.06284407269229014,-0.015026952663559504,0.028799687084179147,9.745109973470695,0.009911171899739038,0.0011238537454017704,-0.010495438508928673,2.076939523659283,-0.5867542987381279,-1.1995483079301348
30065,2.350,0.9979975361629745,0.00675288948759136,0.002145276109960585,-0.06285470616121878,0.006597633169641242,0.039294603467901326,9.762286312461397,0.011819768890678097,0.0005939007289842331,-0.01116351252155542,2.0906041152043873,-0.5835713420220814,-1.1985020050350268
30066,2.358,0.9979975751155016,0.006751788891244822,0.0021442493029675933,-0.06285424094899479,0.0065628466954933806,0.040175328406178115,9.762282749900985,0.009818950751151937,0.00018040990996114295,-0.008706495927980597,2.0850538358831394,-0.5755985092481896,-1.2074079733648138
30067,2.367,0.9979983991093431,0.006745405789834072,0.0021476820728091725,-0.06284172449601919,0.006500704445750318,0.040927630077557633,9.762279665942039,0.008666365043009897,0.0012880008040407297,-0.005578326212295855,2.0869850528625813,-0.5819180644946511,-1.2044039546487137
30068,2.375,0.9979999126623029,0.006730623618617722,0.0021498125968376905,-0.06281919561359689,0.006411237089398681,0.04155152735308206,9.762277088635212,0.006666038327092339,0.0008747524164279461,-0.003121701223569196,2.089401697427442,-0.5777354101999677,-1.2010077877959364
30069,2.383,0.9979989807133504,0.006745081799180713,0.002146743098377964,-0.06283255414756284,0.006370469901069682,0.04238143613444005,9.762273551727294,0.013727032036855933,6.323336471116721e-05,-0.011830172981276012,2.081849432296598,-0.5801975675980555,-1.203237042531039
30070,2.392,0.9980000148978037,0.00673110599982872,0.0021531770418706142,-0.06281740447224485,0.006290983008306278,0.04321507218653408,9.762269944631534,0.0067565398621155385,0.0018174561735696043,-0.00490954847059922,2.0867013354609356,-0.5865055332981093,-1.1989909920686397
30071,2.400,0.9979989470809144,0.006741648991712932,0.002143993613491667,-0.06283355063693322,0.0062732135303169,0.04401419354317326,9.762266389212533,0.012878296930180127,-0.0014583404739769209,-0.012500332923641793,2.0879815418887255,-0.577305098689096,-1.2071262090812929
30072,2.408,0.9979982478014874,0.006748667526660788,0.002143923694461095,-0.06284390553560906,0.008627766051025738,0.0691393624421912,9.74579576519093,0.011816386863643736,0.0005922621287805355,-0.011160623131526312,2.0782337358402443,-0.581478481346653,-1.2095994241736459
30073,2.417,0.9979983716735242,0.006750745130358692,0.00214851560180586,-0.06284155836616838,-0.01316182267933763,0.060415153950079,9.728615963073345,0.010663847913201326,0.001700518391925868,-0.008033016721439806,2.0823091467825066,-0.5801604810495506,-1.199327503578558
30074,2.425,0.9979977614628441,0.006745895146952455,0.00214439326548116,-0.06285191000551694,0.004017213697113902,0.023542295520500058,9.727989096467239,0.00905909699558555,-0.0003999525677507176,-0.011162828280003064,2.0891377462595577,-0.58039533903388,-1.1982987220787717
30075,2.433,0.9979979682024839,0.006736248156607713,0.002145582622063587,-0.062849621317071,-0.015555037959516302,0.03778369328257769,9.745078452205554,0.007906766819817659,0.0007085809765756957,-0.008035587547567183,2.0805842482682824,-0.5786748421372843,-1.197156795590204
30076,2.442,0.9979969075925612,0.006747868962632556,0.0021559797799313566,-0.06286485863609927,-0.03527034126004788,0.05217442886180186,9.762164487968738,0.012752205332983251,0.003055208398360583,-0.012276082569554002,2.092049577184091,-0.5793956414552427,-1.1958453462290906
30077,2.450,0.9979964139935554,0.006746686444650721,0.0021583273522049534,-0.06287274052451154,-0.013569961480472244,0.06365371053434551,9.728594751204632,0.00990515360745766,0.00112086279960152,-0.010490599255121993,2.0886461291145975,-0.5772170181363966,-1.1978441772727884
30078,2.458,0.9979969956910085,0.006748498182939909,0.00216030026575149,-0.0628632441634879,-0.016152067309161428,0.039464158017688454,9.795802661186695,0.010571183272167231,0.0007582849018750316,-0.006243078518477639,2.084820358593157,-0.5763448055682451,-1.2088675431018947
30079,2.467,0.9979977286253509,0.006753153651190568,0.002148327118077965,-0.06285151760298426,0.005780229005961652,0.0509236156351271,9.762233095672386,0.01154198904600834,-0.0022348425949086613,-0.0057927356163487405,2.0891426764790006,-0.5865055332981092,-1.1989731451907062
30080,2.475,0.9979974652697179,0.006744474032819442,0.0021535405263080083,-0.0628564527191973,0.005800697405989154,0.05171869105289508,9.762228901717567,0.00799522992212318,0.0016494147010340011,-0.00982233728279718,2.0820740543262173,-0.5784631632457707,-1.2005661286905762
30081,2.483,0.9979980715410571,0.0067458809770431765,0.002154261917888107,-0.06284665023503042,0.005699286916670898,0.05247423673057463,9.762224930738745,0.01057007560743578,0.0007580911271319546,-0.006242275557602061,2.089342991769832,-0.5749734933576669,-1.1929772218644343
30082,2.492,0.9979980307316353,0.006744315359434452,0.002153678761587411,-0.06284748629740813,0.005657921725945464,0.05330368523753947,9.762220460631536,0.009812876727773392,0.00017784641229227837,-0.008700765864538527,2.09134560998764,-0.5811416353539354,-1.1997404449379196
30083,2.500,0.9979975378600259,0.0067431214696960185,0.002156020768884002,-0.0628553602536457,0.027283702021245946,0.0637741130475761,9.77938263321964,0.009902515370182972,0.0011192744562966944,-0.010488642180850976,2.086710936261921,-0.5767519379863014,-1.2003043214553926
30084,2.508,0.9979971563902136,0.0067454883595168425,0.0021464389024303575,-0.06286149078631408,-0.01605517546718732,0.045280267694332334,9.745045693432795,0.010873647339951758,-0.001873658940399492,-0.01003751582000429,2.087965107652206,-0.5826550891775804,-1.2048781085526044
30085,2.517,0.997997500064831,0.00673973351618618,0.0021537385036369417,-0.06285640195665611,0.022875652930113056,0.01809241894750907,9.761620668085978,0.008749973437422853,0.0022287908031786703,-0.007362360214827411,2.0920944126413694,-0.5762799041083615,-1.2019785557085294
30086,2.525,0.9979968594204088,0.006734855593706364,0.0021503940823344213,-0.06286721015301573,0.005529846627632942,0.056474897318625386,9.762202703070226,0.00905439619146174,-0.0004033552294382773,-0.011157915570619301,2.095510352962358,-0.5784747527921784,-1.2016885863547229
30087,2.533,0.9979979033001126,0.006720634544811181,0.0021565369890754107,-0.06285194848299525,-0.04018899355798802,0.013656186397271673,9.744367041615034,0.006751137934978453,0.001816725438136747,-0.004906803593968107,2.0898502298342696,-0.5845200455965244,-1.1955686105263383
30088,2.542,0.997998154425059,0.006726479629311927,0.0021496145095556947,-0.0628475726932497,0.005444275813105682,0.05786608940072948,9.762194605455312,0.011629236481585967,-0.0012932883866578803,-0.007577267466488794,2.0835103052193524,-0.5784260766972658,-1.1966494509869219
30089,2.550,0.9979981437309123,0.006724621091728342,0.0021480862138735114,-0.06284799365488404,-0.016192864185326266,0.04905320280156119,9.745027203604131,0.009810193550603948,0.00017692051386717213,-0.008698435115990754,2.086204669487797,-0.5789259254865843,-1.1978457992192761
30090,2.558,0.9979981239776873,0.006723146056697755,0.002147362767722762,-0.06284848985665031,-0.01639979549152485,0.04899207598185243,9.795759230411315,0.00980979974678714,0.00017677945747386249,-0.008698098854720528,2.086461380561625,-0.5777215027442784,-1.1995644654581208
30091,2.567,0.9979974134686109,0.0067297453042835164,0.002146989192815036,-0.06285907790850982,0.0031394389781718296,0.03631942977435453,9.778682996809573,0.011807028016420511,0.0005883149396479409,-0.011152574999439651,2.0857679007359473,-0.5826550891775804,-1.204894170742744
30092,2.575,0.9979977602344754,0.006724280529883807,0.0021545759663949052,-0.06285389741878547,0.005501329428519615,0.062100910476016916,9.711437771837604,0.00874714537637116,0.002228036786721949,-0.007360839249222032,2.0842585995499308,-0.5808882340953536,-1.1988180263370518
30093,2.583,0.9979976675856159,0.006734129064377375,0.0021564540978090863,-0.06285424969832543,-0.036082712576649856,0.06597634140950864,9.7620779965836,0.012563009354122329,0.0011695488024195027,-0.008693369057321687,2.0974274286357892,-0.5828227277927444,-1.19675012562897
30094,2.592,0.9979981527236643,0.006732852641579602,0.002171011737602625,-0.06284618177340669,0.02225615280038755,0.025374432460509064,9.761605888076792,0.00959256938742287,0.0037501566707590743,-0.006690382760095783,2.0877104184032054,-0.5804440151287925,-1.203436015275206
30095,2.600,0.9979973976325796,0.006724479433522823,0.0021799173288490274,-0.06285875957562816,-0.03426405796653197,0.09168352222916287,9.745553337551494,0.008078463377787051,0.002586157398766126,-0.011606415890143995,2.0835355608280253,-0.5745524534839213,-1.2001042599242941
30096,2.608,0.997997285996994,0.006734461864150985,0.002182089902085808,-0.06285938792013582,0.04579750208491632,0.060734256125064355,9.762247119317195,0.012561723195020117,0.0011693553794615236,-0.00869190531156724,2.0867302111166364,-0.5819041570389617,-1.2029410007451715
30097,2.617,0.9979971937317974,0.006744302746599724,0.0021839670889328804,-0.06285973251354947,0.004444693242077059,0.06560316909525833,9.762146184140805,0.012561186089928553,0.0011691629237899194,-0.008691446633319892,2.088380884718404,-0.5727948700388209,-1.1949582060301986
30098,2.625,0.9979970232115984,0.006738769466719559,0.0021770787559753516,-0.0628632720668743,-0.017223359388798008,0.05676544212463504,9.744983563718074,0.008960967855855293,-0.0013472772049485972,-0.009364488515556704,2.0893708168910186,-0.5855081536287536,-1.1967835240053073
30099,2.633,0.9979970137156081,0.00673689480630023,0.002175545294183751,-0.06286367683941933,0.02179495333525827,0.029601609190030225,9.76159502497259,0.009806415034714496,0.0001753162722667394,-0.008694503496827603,2.0899253019519786,-0.582908490436162,-1.2058380055971318
30100,2.642,0.997997778477081,0.006742128885971014,0.0021641784672440417,-0.06285136581219272,0.0022920586688130956,0.044025263808015344,9.778651575279277,0.011536098670751239,-0.002234091250946304,-0.005783358808150091,2.0805987792887106,-0.5750314410897058,-1.1991445480888914
30101,2.650,0.9979982507646907,0.00673960122126377,0.002158781496036499,-0.06284432280205465,0.02218935250795857,0.03214430225406053,9.710852272466107,0.009716747301414221,-0.0007651580082629869,-0.006905612523761208,2.086046044042158,-0.5812343517251976,-1.2095446320116088
30102,2.658,0.9979980147394614,0.006745599921816981,0.0021543575468020654,-0.06284757912083198,0.002646278068605024,0.046567832264993204,9.727906594074232,0.011712917021409707,-0.0003543819897241887,-0.009359375477045283,2.085003223001164,-0.5848105334036109,-1.2004844484059736
30103,2.667,0.997997260547405,0.006737208944255542,0.0021632519184951043,-0.06286014871644949,0.026491252893614325,0.08118029642943139,9.728525908081568,0.008074332391854908,0.00258315489229325,-0.011604408121820784,2.0935339277553267,-0.5806417865646167,-1.1985084029496988
30104,2.675,0.9979974033457178,0.006739802862413061,0.0021686553785110166,-0.06285741727457328,-0.019484893443875783,0.03760277816671767,9.761484440073659,0.010649909997846298,0.0016975036857240164,-0.008023509925099643,2.0957594850600287,-0.5836084285705864,-1.2023704961682615
30105,2.683,0.9979973944609216,0.006737918167807234,0.0021671183296158264,-0.06285781340550856,0.004370611685285232,0.0722472617392496,9.762099305361073,0.009804037625658023,0.0001742930803350072,-0.00869246981580611,2.079839285934947,-0.579635135258135,-1.1954440165742954
30106,2.692,0.9979972594334049,0.006732647362490046,0.0021602405752934517,-0.06286075869382393,-0.01951881749195338,0.039194980496371254,9.761478108057132,0.008958239751773654,-0.0013489687396013765,-0.009361384193229209,2.087945510859494,-0.5821413329325725,-1.202197390163188
30107,2.700,0.9979969870643353,0.006723600583217867,0.002165271060054909,-0.06286587792231349,5.812156292745427e-05,0.026328561590795115,9.744423918408234,0.007984000547413056,0.0016424887992370005,-0.009814896563541085,2.0867032047888174,-0.585287203100114,-1.1992467044039423
30108,2.708,0.997996225136368,0.006742454787303219,0.0021688176386209035,-0.06287583118378577,0.002188163964309018,0.0513196616103218,9.727882802303222,0.014551533452890062,0.0015789730955800187,-0.011141161596280438,2.098416508126826,-0.5821065642933491,-1.1984588021097362
30109,2.717,0.9979970977402591,0.006750976415520256,0.002162974539188865,-0.0628612659799331,-0.04136876932808349,0.03214422443067937,9.744318658559425,0.012378597646703623,-0.0007104040546523796,-0.0051102774184804195,2.0896334409423836,-0.5762544071062645,-1.1993110485023477
30110,2.725,0.9979972850411166,0.006741656899845445,0.002165377879245427,-0.06285920975835901,-0.002373683025840536,0.005086921625598009,9.76095918785069,0.007894520096371156,0.000702268336135583,-0.00802560829935918,2.089953855669683,-0.5829455769846669,-1.2097439751740262
30111,2.733,0.9979974948172335,0.006731956670484983,0.0021665458151186668,-0.06285687851893576,0.021682552691852274,0.0403187041786086,9.710822917377302,0.007894229487697059,0.0007021640831759284,-0.008025360016943497,2.0833104474193576,-0.5833666168584126,-1.2027079561916258
30112,2.742,0.9979973034541124,0.006738835450380022,0.002180895952594823,-0.06285868347282692,0.0016904334363483273,0.05390163829704922,9.77860224528981,0.011579416251103467,0.004159223969171967,-0.009140588573394823,2.091593448857,-0.5791932342008553,-1.2002454492260326
30113,2.750,0.997997295469156,0.006736938155671059,0.00217935477869826,-0.06285906707298416,-0.02014894238882833,0.045014446414345335,9.761451726681438,0.009801043230724721,0.00017304349182166705,-0.008689518024138266,2.085284884689773,-0.5841268206341574,-1.2056162023299024
30114,2.758,0.9979974329536838,0.0067392994945046115,0.0021842623365851016,-0.06285646075167162,0.0016260876805686086,0.056358386947799655,9.72785502284065,0.01064551518843805,0.0016964643846508773,-0.008020353263278402,2.0869637731271435,-0.5799372126116292,-1.2014930202448375
30115,2.767,0.9979974251958418,0.006737399077873473,0.002182719923649763,-0.06285684123363756,0.023203568013703133,0.06695159359393939,9.744994577583533,0.009800309087204273,0.00017270221854517865,-0.008688781622823077,2.0871718592556134,-0.5850175764765615,-1.1965600987915899
30116,2.775,0.9979967343093343,0.0067445008956917366,0.00218302772803425,-0.06286703751181341,0.042572806444794734,0.05353216433981851,9.778687294348947,0.011794970545637731,0.0005825455501764522,-0.011141459718979398,2.0825763960594226,-0.5814112619774879,-1.2024877299352448
30117,2.783,0.9979966807080773,0.006727631884274638,0.0021907555529580495,-0.06286942702933672,0.0209980236080521,0.04523266264782023,9.710802775330045,0.0060726927933967235,0.0021684405128440114,-0.009147385303832418,2.0862061829894722,-0.5828343173391521,-1.1980528367602428
30118,2.792,0.9979968733610292,0.006745064399622456,0.0021864161949527077,-0.06286465184885548,0.020721716932893902,0.0453258897895589,9.761537017391255,0.014370532202992687,-0.00029965644442018444,-0.007559513970590186,2.085716113234398,-0.583076129051326,-1.197809965189924
30119,2.800,0.9979970839258246,0.006735352896240065,0.002187578878570589,-0.06286230981728355,-0.0009514109120421883,0.0364559271348419,9.744391246061662,0.007891554788233923,0.00070074144637354,-0.008022915212933667,2.084490190567926,-0.581604397594749,-1.197100426417319
30120,2.808,0.9979975752207848,0.006733393639557477,0.00218292645263954,-0.06285488123950003,0.022946638141948018,0.07101107892602715,9.74496645023969,0.00971086828264741,-0.0007663863888069775,-0.0068985327289937904,2.086775436288331,-0.5731734383986067,-1.2091275207136454
30121,2.817,0.9979974326355835,0.006727585478999702,0.0021752563518494476,-0.06285803294894889,-0.020474626104370248,0.051483068760451306,9.761419075526916,0.00895358706716382,-0.0013521489673566627,-0.009355150535926834,2.0944976838612703,-0.5847757647643874,-1.1967529991036954
30122,2.825,0.9979960925835253,0.0067310504991216595,0.0021730796323842652,-0.06287900978948416,-0.01838079293940343,0.07563409151771938,9.795586236752138,0.011034979281603168,-4.4536659932859355e-06,-0.013595886819892343,2.0964399981992683,-0.5854942461730643,-1.1952670294679655
30123,2.833,0.9979959962193785,0.0067402036073741034,0.00215614097133537,-0.06288014186953751,-0.022530795240394953,0.02919929971941829,9.777979186954326,0.01267949271056577,-0.0033476323428323273,-0.008894054715445169,2.083320115996763,-0.5726365030607832,-1.2040305569677763
30124,2.842,0.9979968086036216,0.006734061500336249,0.0021604227849903513,-0.06286775808064991,-0.0028386241933051185,0.016512314162153305,9.760946422926093,0.008646552477386504,0.001286093118775196,-0.0055650222675694685,2.086676825392886,-0.5796374531674165,-1.1956381684146384
30125,2.850,0.9979957558775514,0.006745128448319505,0.0021700022352404745,-0.0628829514487858,-0.0030159403741665146,0.017381150794591616,9.760944863970192,0.012721534411625835,0.003042775687729871,-0.01225817634305726,2.083769941631901,-0.5865032153888277,-1.1987682852236037
30126,2.858,0.9979965175596689,0.006750384707508567,0.0021588329946793596,-0.06287068223882697,-0.044311499023315146,0.02212326291582528,9.760835152350639,0.011528528674060873,-0.0022331030075500077,-0.005771772839921163,2.0862368263084248,-0.5784793886107416,-1.2022446506879811
30127,2.867,0.9979954578842919,0.006760814100660321,0.002149598239285945,-0.06288669702272957,0.018943066806205704,0.029855235740411105,9.727336522103535,0.012851891861733898,-0.0014728238229112802,-0.012468795334775068,2.0867355818828104,-0.5816669811453511,-1.2036756878881887
30128,2.875,0.9979955857046806,0.006763024523955793,0.002154360417978973,-0.06288426786128658,-0.041944720311246075,0.04811337250372865,9.744250431351253,0.010638680436778214,0.0016950122463061583,-0.008016319726325234,2.0903845928352602,-0.5889746444240419,-1.2018705204609172
30129,2.883,0.9979953154861405,0.00675393706789391,0.0021593692009455037,-0.06288936099576856,0.0012096814313591617,0.06848309339469875,9.77851106616637,0.007974453933554034,0.0016364264187617987,-0.009808770323413304,2.095474508318283,-0.5806255611996459,-1.196785263757461
30130,2.892,0.9979949900222358,0.006757261301780818,0.002168884973326989,-0.06289384109902862,0.020647080224657322,0.055690441200861675,9.761483544731181,0.0107246248940465,0.0026323717468224954,-0.00980413838584149,2.0889342853566393,-0.5858195026193742,-1.2038643453916658
30131,2.900,0.997994983994257,0.006755333175364038,0.0021673349401986164,-0.06289419730984917,-0.0011158038560815503,0.04671176333651814,9.744347463041823,0.009793711332395316,0.00017025529555295542,-0.008683033966051133,2.083310210201887,-0.5867844315587881,-1.2026755063287353
30132,2.908,0.9979951644289035,0.0067579290559414695,0.0021719894985641574,-0.06289089467497902,-0.023036471534312968,0.03705026259091434,9.77795141042494,0.010636993638616029,0.0016947272787761459,-0.00801492640620629,2.093277182793289,-0.5823344685498336,-1.1967851010161554
30133,2.917,0.9979956405459638,0.006755358442983129,0.002166587252794156,-0.06288380143752689,-0.02065754420613382,0.06259084702146162,9.710618750559128,0.009706415257727533,-0.0007672964848189038,-0.006893767160740778,2.081897616695224,-0.5802601511486575,-1.2098283661920486
30134,2.925,0.9979954238871033,0.0067615269724391365,0.0021625380846629068,-0.06288671626372974,0.0008284568542637063,0.07261472076058122,9.778481299441358,0.011699170601736801,-0.0003586316060984816,-0.009345280885449522,2.080607380387497,-0.5796814934437662,-1.2003211244820335
30135,2.933,0.9979957647583755,0.0067550585977221985,0.002151006775916594,-0.06288239719935156,-0.0010888919180033093,0.05007084748668638,9.744330784210218,0.008862205941491359,-0.002292297095463217,-0.007560707976607595,2.083859714211089,-0.5788069629663332,-1.2110486112665775
30136,2.942,0.9979961084013879,0.006749268617567648,0.0021578316697961506,-0.06287733098103672,0.018533425734085902,0.03722983467836584,9.727311879105379,0.008728650313821576,0.002222520442028894,-0.0073508270780049175,2.0862049405934773,-0.5750198515432982,-1.1978828847768657
30137,2.950,0.9979964559038121,0.006743423317193494,0.0021651118370832247,-0.06287219207351706,-0.0012727948216772604,0.05149370172653633,9.744323346695806,0.0087283426234014,0.0022224098303689575,-0.0073505640169907885,2.0855700647607796,-0.5841801325476333,-1.2112292489088947
30138,2.958,0.9979966629818637,0.006733821247226805,0.0021662284316701238,-0.06286989568034293,0.01803157804641396,0.037963853842301984,9.778046194315474,0.007884715491962622,0.0006973791465799885,-0.00801775646710688,2.087432020935418,-0.5855266969030061,-1.198750786296101
30139,2.967,0.9979965754885416,0.006743576012309098,0.00216809739772133,-0.06287017456143013,-0.0014739607201268235,0.05299731972622507,9.744315258671124,0.012540523149378665,0.001165738523321715,-0.00867591299657307,2.089875722660413,-0.5772286076828044,-1.1990558693266014
30140,2.975,0.9979958833701673,0.006688254778272332,0.0023301146397498116,-0.06288127376243786,0.017872225343315694,0.03973902800892845,9.778039434906805,0.010547495854093933,0.0007571557065623283,-0.006224059261824577,2.0849878562432638,-0.5747803577404058,-1.1983823722602933
30141,2.983,0.9979945610909697,0.006691457127033969,0.002327510334319816,-0.06290201213000939,-0.003798663172866838,0.0307758540222486,9.760911546947648,0.011025419783675218,-1.1726490548987794e-05,-0.01358687888766811,2.0838401174183776,-0.5782932067213252,-1.2083678928771613
30142,2.992,0.9979949289831255,0.006684960889052884,0.0023160551210811204,-0.06289728857871975,-0.023137888225128952,0.045770750716322244,9.727177340089993,0.008860553346921068,-0.002293129009587357,-0.007557858393460032,2.0860301011846842,-0.5795045831914758,-1.2073637490560511
30143,3.000,0.9979945750779678,0.006687508871344645,0.00232456743479588,-0.0629023189261247,-0.003723679894495059,0.03238029783407012,9.760906385225278,0.010718032504331202,0.0026299193447977707,-0.009800482075488334,2.0864841568546324,-0.5838548761013233,-1.202680119555614
30144,3.008,0.9979941679748242,0.0066897178505696975,0.0023141757293139707,-0.06290892586916784,-0.027594198081487144,-0.0006267720218544022,9.760394166975455,0.010852089746414094,-0.0018852144937489379,-0.010008192578488107,2.0774408263257538,-0.5789583762165262,-1.2013277713596184
30145,3.017,0.997993945527852,0.006695533493052844,0.002310004546743743,-0.06291198931832163,-0.025500816686930765,0.023699567776235955,9.794519229224422,0.011694457386517386,-0.00036006400228753686,-0.009340729294820127,2.094311165518025,-0.5775260492177355,-1.204636258365758
30146,3.025,0.9979939451030715,0.006693694072789668,0.0023086875853072174,-0.06291224013577575,-0.0014641395965388415,0.05907548756425464,9.744280304739878,0.009787819563906832,0.00016785354178912754,-0.008677923515536676,2.09869266349642,-0.5836130643891494,-1.2028373261118532
30147,3.033,0.9979942086192323,0.006699490608767057,0.0023194828579467786,-0.06290704560959705,-0.021239956065489528,0.07349393954543923,9.76127653656037,0.011472896679708054,0.0032186054255938824,-0.007343758610470794,2.0913884575083017,-0.5809531355552373,-1.2056017171506106
30148,3.042,0.9979937211028496,0.006702416741123125,0.0023286032551108854,-0.06291413081332882,-0.023478843465790343,0.05097356477531185,9.727150651119706,0.010715333861707204,0.002628861793916184,-0.009798894880623887,2.0862548926553557,-0.5753288826246371,-1.2047160136890818
30149,3.050,0.9979950322295931,0.006695251312703436,0.002328281076137305,-0.06289410435123403,-0.001971708868721199,0.061621521406406816,9.744264446449845,0.008552363024198944,0.0003492621402041771,-0.0037704084181417086,2.089159280156571,-0.5787142465950708,-1.2012444241928881
30150,3.058,0.9979946724976163,0.006697863038060744,0.0023370615885045707,-0.06289920858191475,-0.02173380188838559,0.07595968403020842,9.76125657254916,0.0107145176313524,0.002628396992245165,-0.00979829801108792,2.0901463717109907,-0.5809253206438586,-1.2026811634069066
30151,3.067,0.9979946154987304,0.006680288108839097,0.0023260313494360215,-0.06290239076923984,-0.02374133006737013,0.053216145061063716,9.727138001404644,0.006195284855947856,-0.0023563647127882196,-0.009347434615020602,2.0833066240430687,-0.5870239253616804,-1.202184942284274
30152,3.075,0.9979942886735255,0.006698304036566237,0.0023255208547654435,-0.0629056790028705,-0.004237129877702175,0.03990694767798273,9.760878307858414,0.014440063339823622,0.0006366843684726516,-0.009332932826764196,2.083307471248322,-0.5748174442889107,-1.2023008346517412
30153,3.083,0.9979944182234671,0.006700197597605226,0.0023301824067815924,-0.06290324949402815,-0.004334777774064192,0.04092615015364255,9.760874042175697,0.010627630250640079,0.001692403152302158,-0.008008726407397172,2.0872511783522385,-0.5736454722765466,-1.2074104539534685
30154,3.092,0.9979939396338918,0.006698667186639781,0.0023324740793574787,-0.06291092016984187,0.015190504663139969,0.028203581493543076,9.743878326414512,0.00987011054355189,0.0011018256563506915,-0.010463612463171235,2.075991829019547,-0.582641181721891,-1.2035008196631416
30155,3.100,0.9979939351217159,0.006696666775034448,0.0023310017915330506,-0.06291125928659352,0.017119255648312966,0.05244512350672732,9.777980887106501,0.009784563196602591,0.00016635147682924427,-0.008674526526675413,2.0913594293556557,-0.5877516784074834,-1.2016308478479347
30156,3.108,0.9979942040432822,0.006703028531932818,0.0023418155177077067,-0.06290591390797194,0.03662226576851333,0.039756246338834754,9.760987004404795,0.0114684204747924,0.0032180851359142554,-0.00734130213196383,2.089868228404781,-0.5823460580962414,-1.1980307021380416
30157,3.117,0.9979942821178569,0.006689337388185253,0.0023369119169253144,-0.06290631500941611,0.01687704641274964,0.05406717187775203,9.777972472319114,0.007036063876625033,-0.0008321416692538473,-0.008678625343328413,2.080151692607138,-0.5731317160315385,-1.2047814915100588
30158,3.125,0.9979953650336634,0.006675167521675748,0.002343421335735647,-0.06289039581944199,0.03648036080807291,0.04107318352611977,9.760982080445268,0.006729142313158324,0.0018126305456818803,-0.0048955267438512565,2.085541409378445,-0.5856078237278607,-1.2073093722479042
30159,3.133,0.9979943114718939,0.006685499267029266,0.0023342466964160462,-0.06290635628974073,-0.004806157880178142,0.045529792679008585,9.760853434722339,0.012837638948160309,-0.0014809893471989378,-0.012450978055040514,2.087457157935355,-0.5833619810398495,-1.2021893703020277
30160,3.142,0.9979937765061462,0.006684593505635013,0.002336588803963588,-0.06291485212115018,0.01682670141361563,0.056353987125150974,9.77795964812816,0.00986749274396541,0.0011005498775536716,-0.010461531629852139,2.0920660622529255,-0.5733132621023919,-1.198100400299827
30161,3.150,0.997993155643698,0.006679324852415164,0.00233281976739336,-0.06292539916268297,-0.02862212689720191,0.01330641464163515,9.760382155358837,0.009025214534827021,-0.00042583384757712565,-0.01112730590132067,2.0833088153089467,-0.5811671323560325,-1.2024846937192142
30162,3.158,0.9979931756567592,0.0066775123238541996,0.00233195117941488,-0.06292530631946476,0.014830897979298242,0.034430452801535505,9.743858867005722,0.009781911362436344,0.00016554772321180543,-0.008672086771613184,2.089676779842091,-0.5689861482853601,-1.2052395382881695
30163,3.167,0.997993438309695,0.00668266723234491,0.002323932115086909,-0.06292088992520503,-0.006948179891733546,0.02484727195531411,9.777488013296095,0.011602567096919623,-0.0012969623129722814,-0.007544127169314493,2.090645347558743,-0.5809392280995479,-1.204142332622655
30164,3.175,0.9979929056717114,0.006681204016133182,0.00232658418103358,-0.0629293949428893,-0.006738920385646534,0.026258580742748144,9.726745330717067,0.00986550163044651,0.0010997009511038033,-0.010460196994771284,2.082337615779686,-0.5814182157053326,-1.2032218839187059
30165,3.183,0.9979935168621046,0.006681839064340408,0.002308589567988065,-0.06292029674225308,-0.047904848711563155,0.030728878768891375,9.726616602497987,0.0106758615824383,-0.003758003474956652,-0.006420467857814407,2.0825497116696,-0.5801558452309875,-1.198837472693653
30166,3.192,0.997993087447379,0.006681432521358799,0.002329930970246106,-0.06292636401688419,-0.0027847089663666034,0.07486668449881877,9.794907983690349,0.009726322842667319,0.005614248480972302,-0.010255790114215324,2.0839965515981387,-0.5818415734883597,-1.1963693086498886
30167,3.200,0.9979937010401108,0.0066826716717101045,0.0023307504740037793,-0.06291646990906728,-0.024666155832852338,0.0657708250469869,9.777796426726962,0.010537120017206561,0.0007569909746134683,-0.006215753812964985,2.0923686986830816,-0.5790047344021574,-1.2061013673753438
30168,3.208,0.9979937747853578,0.006669335829603711,0.002326363161142215,-0.06291687757436257,-0.02662589006493552,0.04300464527581741,9.743711615962283,0.007032874150536857,-0.0008344927247180984,-0.008675068113590551,2.0840395177275353,-0.579944166339474,-1.202246805794025
30169,3.217,0.9979942542328755,0.006666685381055397,0.002321046189364186,-0.06290974939374894,-0.004744679296035917,0.05412699916636071,9.71007169523313,0.009695135980128323,-0.0007696911620688479,-0.00688100674229983,2.0842979456322994,-0.579718579992271,-1.2042003237420282
30170,3.225,0.9979943979809236,0.006668797239559634,0.0023257482289380316,-0.06290707144071556,-0.005193197932951412,0.053922988131267405,9.811548410704113,0.010620128303839939,0.0016909610674620099,-0.008003833988972066,2.0930796179238023,-0.5799534379766004,-1.2031572647398956
30171,3.233,0.9979943130879876,0.006678453594309667,0.0023277023655407215,-0.06290732153988403,-0.0027462924852099152,0.07988205246670378,9.693395042641182,0.012524986088208678,0.0011632258614061204,-0.008664001089116398,2.0925699513760168,-0.5796814934437662,-1.2002336747801607
30172,3.242,0.9979934282808516,0.00668190066965243,0.0023408287946983875,-0.062920504068453,-0.005305899396546824,0.05632443639934509,9.760796853742669,0.010787075850180171,0.003558343682826037,-0.011580697947822832,2.0886964878349965,-0.5716669383028061,-1.2047329345213884
30173,3.250,0.9979940720815473,0.006655881694010178,0.0023286401274367347,-0.06291350224017257,0.014319881125242807,0.043378446023875014,9.743823902569972,0.004201423860087932,-0.0027687710401905004,-0.006889700853583031,2.085960586218306,-0.5781935366222181,-1.1978545374491174
30174,3.258,0.9979930379327203,0.006666222608599482,0.0023199410584406137,-0.06292913146896326,-0.003021353720980503,0.08161988623311116,9.744117190318867,0.012830558084079801,-0.0014844451610423167,-0.01244291769104822,2.0801478183985345,-0.5775214133991724,-1.2042515240606586
30175,3.267,0.9979943523779099,0.006659628063552397,0.002338442642470571,-0.06290829565216173,0.01434879213895838,0.04493423545986106,9.743816811579414,0.008405627271064232,0.004865901110568079,-0.0035622438164878093,2.0830145766483184,-0.583055267867792,-1.1956324888686474
30176,3.275,0.9979940162278332,0.006646330451652569,0.002318778820274985,-0.06291576217252746,-0.0033926124430977266,0.08262896437971877,9.794845384054772,0.007254161453330176,-0.004417731632721833,-0.010663350228034517,2.090833650509345,-0.5881912615554815,-1.1965031964591486
30177,3.283,0.9979939321643784,0.006655974780869322,0.002320733095255654,-0.06291600401090382,0.016604088392858915,0.07036544110422573,9.727132105253405,0.01252211102530008,0.0011630574485486504,-0.00866195916028546,2.0908606229489544,-0.5852964747372401,-1.2001928571056792
30178,3.292,0.9979939186882857,0.006654806421323884,0.002320254657115939,-0.06291635900956491,0.014399126396324421,0.04728123803739002,9.743805631341479,0.009775820083156328,0.000163139038771943,-0.008666722148671476,2.0817942789095967,-0.5776844161957735,-1.1956924049492996
30179,3.300,0.9979940506489375,0.006656651511285399,0.002324910256194674,-0.0629138987210601,0.012176012405851856,0.024122273589495105,9.760483727718757,0.010616113290377161,0.001690203331786775,-0.008001215212458598,2.093063234519598,-0.5845710396007187,-1.200916117753255
30180,3.308,0.9979932453339245,0.006659657314464711,0.002319216189560997,-0.06292656409325358,0.014081481946717543,0.048514948321519695,9.794538453110317,0.010922797614381436,-0.0009586302416465177,-0.011779802204155063,2.0787061289628044,-0.5787721943271098,-1.207424243231899
30181,3.317,0.9979937260050008,0.0066569908036973775,0.002313897796789402,-0.06291941834665608,0.012417559607627608,0.02630500635826845,9.709738171170946,0.009691306928079306,-0.0007704053696752385,-0.00687680099420832,2.0772146060739325,-0.5780050368235201,-1.2037800584223683
30182,3.325,0.9979931459637241,0.006651744800475594,0.002309472807575765,-0.06292933525701644,-0.009345633701318527,0.016633321078839733,9.743383772222202,0.009016906784271101,-0.00043182188232832947,-0.011119203467807981,2.084543525459361,-0.5846034903306604,-1.204396305205804
30183,3.333,0.9979934617494257,0.006671835636970089,0.0022922162057130734,-0.06292283098762828,-0.00705932642738393,0.041603313383250316,9.726691578605093,0.015322002757480517,-0.0032853116571308484,-0.00706632828986896,2.084772326691477,-0.5740850554245447,-1.2022970800670292
30184,3.342,0.9979938139799581,0.006666101612974316,0.002299657362402482,-0.06291758039720001,-0.0245559463813558,0.08011324572444727,9.726951639696617,0.0087087665497736,0.0022168687222844366,-0.007340349389814021,2.084071962597949,-0.5753474258988895,-1.2066850606676687
30185,3.350,0.9979934639596996,0.0066685569352793,0.002308143073503812,-0.06292256127712444,-0.026891616233428423,0.05691808849422652,9.743639546078272,0.010696198829900992,0.002622234202131701,-0.009788488675235765,2.085992573597882,-0.5801882959609292,-1.202230210444329
30186,3.358,0.9979934547364736,0.006666602098775555,0.0023066565741021866,-0.06292296921685117,-0.005406951407518849,0.06772639686921408,9.760724342797744,0.009772556674085223,0.00016177951910770585,-0.008663937928807807,2.092129732018189,-0.5816971139660113,-1.206810025037962
30187,3.367,0.9979929707367887,0.006665170805564229,0.002308999816162326,-0.0629307109283017,-0.009518721814341968,0.02100921067902418,9.743375152241656,0.009855023638963236,0.0010942253683787354,-0.010452492803391335,2.0864393213973536,-0.5869706134482044,-1.1965469100761752
30188,3.375,0.9979930819157877,0.006667599875678514,0.00231421691223776,-0.06292849879195636,-0.005581962114041608,0.06935616983602941,9.760712800330257,0.010611871490657652,0.0016892833447790586,-0.007998568880618506,2.0842817994455647,-0.5809183669160138,-1.2019916266182784
30189,3.383,0.9979925981017422,0.006666164912386911,0.002316558568162987,-0.06293623706495159,-0.029426826907950752,0.03622446132287289,9.760321611758009,0.009854161636090982,0.0010937670936868225,-0.010451702089937355,2.0911442047977595,-0.582662042905425,-1.2055872769069587
30190,3.392,0.9979931885461999,0.006667735737684921,0.002317612437681625,-0.06292666833791867,-0.009824794615077868,0.02349629656619372,9.743369168567783,0.01052835183308744,0.0007567905529202161,-0.006208977706276387,2.0918835930356594,-0.5848684811356497,-1.2065375546116583
30191,3.400,0.9979929719164116,0.006673469722199233,0.0023134208189928623,-0.06292965033614882,0.0354773331291609,0.06835860280672615,9.760832828547477,0.011675265832446605,-0.0003661330133976162,-0.009321117125148853,2.0897007646428833,-0.58342224668117,-1.2085205086743414
30192,3.408,0.9979938557525572,0.00667114447872744,0.0023230976034130605,-0.06291552216276299,0.01165406108594219,0.03525208624409695,9.760450512229369,0.009462875536003718,0.002811704737891715,-0.004885007344447155,2.0859961428125953,-0.5801929317794924,-1.2027184566414408
30193,3.417,0.9979936394197652,0.006676875324355364,0.0023189043441805245,-0.06291850042902705,0.03314876060760205,0.046112629097785164,9.777532691199946,0.01167452744044246,-0.0003665715993520854,-0.009320233816528816,2.080307906513534,-0.5798537678774932,-1.1927527752672447
30194,3.425,0.9979948028078,0.006677897112860941,0.002316513768582286,-0.06290002402806548,0.011780231282849225,0.037421236960340595,9.709702487046814,0.010444450273342811,-0.00017551798343267918,-0.004418788262709441,2.0813776830500306,-0.5736269290022941,-1.205500301672061
30195,3.433,0.9979939190137848,0.0066653977720563,0.0023192349449970917,-0.06291527027135897,0.03313036554509909,0.04773637049732456,9.777524958489977,0.007189946480783008,0.0010228464735531674,-0.012244184841835634,2.0926004421980227,-0.577523731308454,-1.2044046280817553
30196,3.442,0.9979935466383149,0.006667778141120877,0.0023278056418214437,-0.06292060810126231,0.009267245889453662,0.014492847396335534,9.77715577898761,0.01069075921471662,0.0026201075260536538,-0.009785106772318716,2.0933505719682715,-0.5792558177514573,-1.2068242800724889
30197,3.450,0.9979930637187983,0.006666328395025537,0.0023301395953442996,-0.0629283345112758,0.009324177547327388,0.015727275256268224,9.726412951966642,0.009850773224265759,0.0010917226920838395,-0.010448852378657936,2.0889704180505015,-0.5795184906471651,-1.2088070713938666
30198,3.458,0.9979933345358578,0.006659859521964058,0.002318703152615951,-0.06292514687180116,0.009162819663197456,0.01609282174925588,9.77715337375708,0.008846596668814325,-0.0022999799437063905,-0.0075346538938991115,2.0801742655708857,-0.5821946448460482,-1.2078693314393598
30199,3.467,0.9979934165056147,0.006646700424861781,0.0023325798781459106,-0.0629247253154587,-0.010374116883716368,0.03067890154209429,9.743348629323991,0.006880627904085261,0.003673641134030945,-0.008467308696092272,2.0887384881504043,-0.5836849195768778,-1.2104783143666127
30200,3.475,0.9979942620633108,0.006655304356764407,0.002326312919649644,-0.0629106356733651,-0.008596278308606436,0.05503476174892068,9.77736338705351,0.012347059870092573,-0.0007018139467672303,-0.0050753253857444445,2.088899508191183,-0.5725901448751518,-1.199107047177412
30201,3.483,0.9979946631634586,0.0066642825106922295,0.0023244334746272,-0.06290339136242866,-0.02995993393837374,0.0464007072528097,9.709536255515935,0.01242863863109842,0.00022943956461471377,-0.00686397036613444,2.0876634594564685,-0.5884400269954999,-1.1970123257502243
30202,3.492,0.9979949513084606,0.0066698700257698485,0.0023173533395829593,-0.06289848861588757,-0.03012908953090163,0.046995341082670526,9.760273552073043,0.011588981563741456,-0.0012991903901808195,-0.0075274698145770605,2.0867300586196906,-0.5841013236320604,-1.2029201401190275
30203,3.500,0.9979948699493625,0.006679461432475404,0.0023192996964939705,-0.06289868995968906,-0.02612448829534953,0.09551655537556311,9.777547305304392,0.012509546961119878,0.0011603741681140201,-0.008652305670960283,2.09016802421674,-0.5775353208548618,-1.205643090452468
30204,3.508,0.9979947907039073,0.006662124263267794,0.0023084726459913552,-0.06290218424035944,-0.00849286513958161,0.05876368511885885,9.777341773896575,0.006183625567284093,-0.0023716519502002017,-0.009326981650620179,2.086764474482616,-0.5768214752647481,-1.2076280144120697
30205,3.517,0.9979949770514167,0.006679466822145635,0.0023227101838036446,-0.06289686415487396,-0.03015948513607562,0.04955762493386043,9.760260786917554,0.014186587618430476,0.004217581256788457,-0.007324294613074187,2.0835242262519986,-0.5835713420220815,-1.1985537609810333
30206,3.525,0.9979939367662481,0.006689989148630986,0.002313679517074293,-0.0629125830823155,-0.008477903710840697,0.061048526192128666,9.726587834091664,0.012815837212869797,-0.0014933962652251063,-0.012425307249465807,2.081820590529108,-0.5843106846142924,-1.199291669549206
30207,3.533,0.997994153078489,0.006680112469362194,0.0023148771454912743,-0.06291015706821602,-0.008450373944152578,0.06188577220280025,9.72658256415255,0.00786062232611537,0.0006849633083898031,-0.00799862596798143,2.082597828291806,-0.5811949472674113,-1.205419524965265
30208,3.542,0.9979948023554043,0.00668173541430028,0.0023157683958311658,-0.06289965103391532,0.011185372195730894,0.04907305595242764,9.709651293102345,0.01052158779316658,0.0007560724342082809,-0.006203567128787838,2.0862331215408707,-0.5804277897638217,-1.2017378617120746
30209,3.550,0.9979949369989571,0.006683523636203201,0.0023204119482438477,-0.0628971535496082,-0.008615182882369947,0.0634858601377572,9.726572108823309,0.010602693829587463,0.0016866088077376864,-0.007992356545565444,2.091134959822981,-0.5872889161666698,-1.2043226223145418
30210,3.558,0.9979949199915222,0.006681942942158489,0.0023193268478760853,-0.06289763137516463,0.03258872996117168,0.06080370917529498,9.72671495236335,0.009763600553374921,0.00015754957352500078,-0.008655425074656567,2.0789109339263474,-0.579697718808737,-1.202042478986478
30211,3.567,0.9979954036488644,0.0066792366889158175,0.0023139989163270644,-0.06289044046601504,0.0087232391306142,0.027259025707210505,9.777129020665521,0.009681897719194251,-0.0007730747378021431,-0.006866002533684737,2.0928687474857774,-0.5892744038682546,-1.2077093101009764
30212,3.575,0.997996307296215,0.006661416323836687,0.002314103166737883,-0.06287798567235887,0.010833493088362752,0.0518385010794539,9.760377456784616,0.005874002121033081,0.0002804277630905559,-0.005550764676667652,2.090324136458505,-0.5857221504295489,-1.1936004671255578
30213,3.583,0.9979956926401247,0.006656636269707386,0.002329090266907939,-0.06288769358038136,0.030355453302620468,0.038880983855402035,9.743453771237638,0.008859791745445551,0.004073691453332147,-0.01091212597675456,2.0828333951830356,-0.5760566356704403,-1.2042457995790283
30214,3.592,0.9979956357252008,0.006666092713835861,0.0023129698654986474,-0.06288819008195637,0.010619299562028102,0.05331407867772196,9.760369747527166,0.012650203912301036,-0.003355775410849305,-0.008842904372928173,2.0845565768663232,-0.5765634381876034,-1.2061816558582237
30215,3.600,0.9979961195188983,0.006663955533337375,0.002326458433303536,-0.06288024103825335,0.010600117884980383,0.05421699751429666,9.760364792737674,0.009534866754844324,0.0037419496118807952,-0.006670308137822873,2.0913495350285594,-0.5760195491219353,-1.2002773659293675
