packet_counter,timestamp_s,q_w,q_x,q_y,q_z,acc_x,acc_y,acc_z,gyr_x,gyr_y,gyr_z,mag_x,mag_y,mag_z
41692,0.000,-0.019044076665099503,0.6295765302344777,-0.031069343007810578,0.7760833793136874,9.72376679716411,-1.5296499315125054,0.3224984988572403,0.2496335765915061,-0.02070539055389097,0.0020216685022938366,-0.5109712190234506,0.07125897532660476,-0.840599855589572
41735,0.358,-0.03590496024866306,0.6534094867726382,0.026097991076789246,0.7557021710216373,6.696286702732749,-0.47612388426931607,-0.31169725160181433,0.42383882548041746,-0.04536721307356994,-0.16785090170626227,-0.5118027678324595,-0.06513321797664205,-0.8275373162280627
41741,0.408,-0.02952263426397953,0.6526887848323926,0.012465098923929946,0.7569480732051221,41.8586125404281,8.711838264991952,-11.82948428026848,-0.5394694636903627,0.15148638028084987,0.18614246363473264,-0.5055830789547663,-0.033834350914614016,-0.8428262520657869
41759,0.558,0.030013273144354164,0.6631661454581486,-0.0590766131746476,0.7455332458912599,4.93185799139584,-6.364997526293769,6.400496116217132,-1.2431559735018445,-0.17878144552187283,0.026698657542621452,-0.5412051602776331,0.13607826606715567,-0.8459204563913184
41797,0.875,-0.05316591107183347,0.6608761957130247,0.045096440355246264,0.7472498584189017,6.762364517326514,0.01894463169573422,-1.8152215663215543,0.8476627927401157,0.00973126336250867,-0.057098186268148,-0.5549217800535697,-0.07138192826750656,-0.8078951677403248
41798,0.883,-0.04887081852385362,0.6576756592317838,0.04637273726168226,0.7502825731614098,53.02410969651988,-6.693618331496476,-6.560322274799211,-0.2435932435860759,1.155161506646098,-1.065114337607485,-0.5458624333757456,-0.07759097278434003,-0.8113067232089594
41802,0.917,-0.03155151672488578,0.6566192122950791,0.004436463434020638,0.753548956358874,50.191860130723825,19.900783842762298,-4.724193473936245,-2.5683332417064713,0.22589031424361522,0.8824355585649604,-0.5369493765725183,0.005457539327345658,-0.8276163165966125
41805,0.942,0.019673514119039524,0.6412988178383975,-0.07388801595644452,0.7634718987489338,14.394132645849908,-9.807031197992867,22.599716934841478,-7.366952074407621,1.6025238566869457,1.0961216268189298,-0.5002394824296463,0.15825050435229887,-0.8391816352066315
41806,0.950,0.024948166448177517,0.637149395346164,-0.08496130051692354,0.7656368685057985,-3.42637277475832,-38.58656099094945,18.59738655765815,-2.7927965392361167,1.1186825429538427,0.873125084815837,-0.4955945962188158,0.18655845453073305,-0.8399831123711826
41807,0.958,0.026352794542310307,0.636412560373568,-0.08681585716135834,0.765994510531185,-12.318109776051935,-30.748410988887404,16.434158366148708,-0.5491524943047841,0.2069023306345702,0.045872823492706036,-0.505841512994608,0.18335716032224916,-0.8409432501987626
41809,0.975,0.017843672364683264,0.6485021437384424,-0.06862082305052886,0.7579035265566817,-21.81255013195392,-12.907456602803391,-1.3660878680101471,2.2798759087744256,-1.7336431041606546,-0.8352094173211497,-0.5376634269065899,0.15339987863648433,-0.8300405359893349
41820,1.067,0.03977103177055984,0.667615627296873,-0.06890978490484144,0.740242582377748,2.2615361133915997,-0.9168962808700878,-3.5869682519207453,-0.3328805416179169,-0.5203224895704356,-0.41439610240093,-0.5846264131822794,0.1620264313366661,-0.78644180318188
41821,1.075,0.037383439131432855,0.664099698915516,-0.06529496240831072,0.7438485304570579,-15.51514836231299,0.2145496473596868,12.94421143188208,1.103732469973789,1.2392130396597127,-0.05886677552625614,-0.5864110192018834,0.1447613179661242,-0.8086606732932631
41822,1.083,0.03549137184789409,0.6631861205407956,-0.06569764916534578,0.7447203172604806,-7.61209993546751,10.576946501199119,-1.205995894387288,0.2415490542522866,0.25694273149345637,0.4229742382011523,-0.5750048602880438,0.14673643286263757,-0.7995951062079588
41826,1.117,0.04618006763004747,0.651299570826549,-0.09790434441717351,0.7510599241998479,19.893613889389844,20.72760723375411,-11.254937650727703,-1.8528468602942298,0.7331954610383727,0.8929546104711962,-0.5564630009934086,0.20760189243122218,-0.79783391209016
41827,1.125,0.03750677623180407,0.6540317421618065,-0.08549879361011631,0.7506834740905814,81.18455451793974,-42.29921216748539,-16.676595651336,3.6371159278714082,-0.5864037569000988,-0.4926440401970717,-0.5696581721967943,0.17907154683658053,-0.7963579698616192
41843,1.258,-0.046833239686545645,0.684776867104068,0.02871505296272912,0.7266792522653635,11.237028860667174,-3.796701161424956,3.983215297929626,2.1090583362437636,-0.6197329723299655,-0.2660626740860522,-0.5852895197441573,-0.037112558883301755,-0.731221379475302
41844,1.267,-0.046336904129354144,0.6920698235090693,0.03379569019642953,0.7195485404251615,5.922128122706456,10.89498233603802,5.188336823727641,0.8319467451983724,-2.413566254981991,-0.9291726770327224,-0.5987637647476927,-0.04792098218366911,-0.7251420342102977
41848,1.300,-0.048803445541644924,0.7088713805302747,0.05244604057469446,0.7016901042457447,-3.4445213803910906,7.944387770948857,6.006878643280722,0.8959911639806152,-1.4951399304170545,-0.6426740828027512,-0.6199211138853009,-0.06731867983462808,-0.7039675909816779
41855,1.358,-0.036998743362659285,0.6858109485992262,0.05466207381761775,0.7247803070289455,2.8713424064443145,-4.815424002125952,-8.927601613502626,-0.23305017949608883,1.1062297602335973,-0.39247607437627435,-0.5629915523902738,-0.06893916994702468,-0.7418356876834911
41856,1.367,-0.03763287924449459,0.684271102355216,0.05986761154236589,0.7257910814894044,53.42926136225516,6.188335010711948,-14.420839794685662,1.0316435388896568,0.45349877863458876,-0.7990435377507911,-0.559857735579898,-0.07342434649962545,-0.736550000068061
41862,1.417,0.03310340960880595,0.661708716186242,-0.05995925594888866,0.7466261626955505,34.71805522292056,15.757592254085395,0.3594960447074879,-5.437230834899501,1.2056593588584583,1.2150102532473397,-0.517558879115965,0.16742523585787086,-0.7768108738110395
41863,1.425,0.03866968742266228,0.6563754276624203,-0.07760646581678372,0.7494352471688515,-0.7635056567840012,-48.796494347065774,24.692820831934927,-3.9854879913324486,1.3221370380615283,1.978488369515427,-0.5073709621278497,0.19674659047780554,-0.7680743331085205
41864,1.433,0.03991455729564613,0.652187166042038,-0.0883354572785505,0.7518348060267881,0.5609629745706004,-44.8673849500186,22.081257419818687,-2.1049540518253513,1.0085005740104103,1.605977906175875,-0.4953480569981587,0.21800520079434474,-0.7759390989153434
41866,1.450,0.036556435706745945,0.656013003311275,-0.08718850531170486,0.7488048684647096,-2.7283698225750546,-20.200847474068688,15.850020452790918,0.3615690057731731,-0.6115748690957428,0.12947135935614115,-0.5000631519485953,0.223676890884885,-0.7658838351523072
41867,1.458,0.030064412012343715,0.6614214668672083,-0.07581110236662983,0.7455672008984431,-3.9889730778824384,0.6417925280057747,-2.820516896406497,3.051844119272134,-1.4855036394233248,-0.8448420962213607,-0.5127378792133044,0.18989199834940443,-0.7686452088649597
41868,1.467,0.025457233765288436,0.6669929821149055,-0.06477906754138345,0.7418058799085878,-4.803496652792156,4.670835195529594,-5.116130822698664,2.672338085766194,-1.565062711663354,-1.1295083652566822,-0.5249559049389995,0.1723503980305875,-0.7672424008269007
41869,1.475,0.024569094145662235,0.672836907433416,-0.057152749522752566,0.7371705493508871,-0.4731128327416479,11.961605245826913,-5.7946042913164355,1.465495136085292,-1.7050356300765332,-1.2554948636734968,-0.5301745255213637,0.16782314803723647,-0.7551797201514933
41870,1.483,0.027065065485983718,0.6776793351973329,-0.05464826536881831,0.7328245137609141,6.717175311173989,15.117393101943158,-6.815905944398742,0.005062294279293707,-1.480406522204732,-0.9893872751291699,-0.54429883239894,0.1606019029122621,-0.7599585236904305
41872,1.500,0.03664659944792947,0.6849773857598217,-0.05963098517229827,0.7251945624133741,11.067497887866407,2.182691095539545,-3.9098001199006536,-1.24001037579714,-1.19530061609962,-0.5448630609366106,-0.5625399852717533,0.18058024238476314,-0.7369947692213316
41875,1.525,0.046326291208380006,0.6915577520049992,-0.07296733475429325,0.717131451299916,0.6013111370453994,-8.835968832639994,0.5069732189950894,-1.322208277467671,-0.8158724735021633,0.09190122340156101,-0.5759800469820461,0.20651998082075662,-0.7354209157608241
41876,1.533,0.04830069619191361,0.6909741957015211,-0.07545435506523311,0.7173063110859283,-4.550134978660141,-11.0763350142422,-4.656035034078241,-0.7709313552762199,0.14942160646850117,0.08108629783702485,-0.5713491241267202,0.21387706681371899,-0.7343819680329138
41885,1.608,0.034792104584671656,0.6610294106721433,-0.09599986642183538,0.7433798849390519,5.448649192144306,6.982336265150402,-8.624606328151062,-0.12149817956044603,0.9786331649009621,0.7541720811424694,-0.5192209181978782,0.26296156824782635,-0.7508253142885473
41889,1.642,0.0053753929927030635,0.6689209784041008,-0.03872365847231872,0.7423047272351121,40.30210820780036,-25.605831392959495,-10.135233494565169,3.7186714930839044,-0.39512682913677877,-1.059800136111204,-0.5362270193096159,0.1549242037760631,-0.7619277513164842
41891,1.658,0.0017348265710298977,0.6516650486440865,-0.02096231535302816,0.7582151647702052,9.960281683443554,8.159049414239215,19.667278066773587,1.9166178980210198,2.855840192233602,-0.9599506092073717,-0.49994776087510245,0.1267496867988978,-0.7810928301501332
41892,1.667,-0.0006400734831168955,0.6428787304857998,-0.00714694812009553,0.765934363589643,4.673543843827718,16.01018280719177,29.816141854848027,2.8968389960923373,2.864416154846877,-1.6371841586852411,-0.4806093389464598,0.101878648169832,-0.7877828606319347
41897,1.708,-0.03623503506492308,0.6655627936348135,0.018957094898255807,0.7452206508919926,-2.4791694660817636,-7.638287698957727,6.994467580248687,2.058191717517788,-1.4996860127024114,0.42941362782126513,-0.5169823368993479,0.05909816251315544,-0.7562625464849911
41899,1.725,-0.04652016675966815,0.6747593548496686,0.011509264727625675,0.7364802943412273,1.1020678239734163,0.26760882304533457,-2.2524172925764074,0.1272979095436083,-1.4937877584875348,1.5034728429582245,-0.527276561139471,0.06804928464802124,-0.7509873754053334
41904,1.767,-0.04451752028924504,0.7076751815470276,0.02929663741911373,0.7045251839683316,10.378863936028903,11.18167189040669,4.320672831138053,0.5040197304366889,-2.219832672120051,-0.6366921829027368,-0.5888343914752634,0.0493572453074953,-0.7145080359353514
41906,1.783,-0.04650141540970633,0.7119255572343761,0.03421556563043922,0.6998777853239853,-1.0772957842511521,7.477605376074961,3.039754602869944,0.5644381066450246,-0.7540357832668941,-0.2534530665036319,-0.5947059195142176,0.035727402719894406,-0.7129284451495366
41907,1.792,-0.043920991477561754,0.710357731480537,0.02738083868396058,0.7019352744423207,-10.015396765250323,11.459618079210767,-10.135083145457637,-1.5906175152835171,0.6586392173600435,0.7166809609411066,-0.5751913382274709,0.046537029853621334,-0.7106573525142716
41908,1.800,-0.040545511887222795,0.7080237448291182,0.01929724810029129,0.7047595720809409,-17.08616103655752,4.809642971091482,-5.3313062374142834,-1.9222083917495332,0.9150730574147289,0.7993019151115655,-0.5710586328981646,0.06736647892914174,-0.7083106170026798
41909,1.808,-0.0443851692542473,0.7035612459807381,0.019935261068001062,0.708966935244835,-15.00273688023144,-6.0156858854384385,-7.341903870645375,0.7816761122875888,1.47769060581861,0.5046256860166407,-0.5716641143116864,0.054903908788005475,-0.7250446449410826
41911,1.825,-0.05529875249789941,0.6937435282643041,0.03411429857358191,0.7172852846646189,-6.82239672366177,-14.903908866449349,-11.411091218793768,2.16084522294589,1.4987895293801334,-0.3157749064683326,-0.5426888171980252,0.03349021651200341,-0.7469075163284561
41912,1.833,-0.0559885137864761,0.6902094864869291,0.03953670921917403,0.7203561617086026,5.8768761344922655,-9.38491522134886,-6.907133896344989,1.047825212912048,1.0964846713308947,-0.850202489261285,-0.539268985932607,0.033971071739509834,-0.7471400372223598
41913,1.842,-0.052860492951769464,0.688115230586413,0.04175797746999452,0.7224676249061402,17.431657558631596,-3.6769058784774695,-12.436957521461066,-0.13009244276765408,0.6810236623753066,-0.9434034341926616,-0.5236398663135959,0.029556820143732416,-0.747623746322982
41915,1.858,-0.0597561874941503,0.685470054112892,0.053624408368555115,0.7236604354237943,57.92279799309587,15.614728957594577,-15.535632762451572,1.6021869252583036,0.3061713988387183,-0.4183185601711267,-0.5267390165360989,0.015099904135747057,-0.7574786258662164
41916,1.867,-0.05639544537776216,0.687948198621696,0.041396705563070534,0.7223801925041496,65.47701847794117,38.10285958859336,-15.305244168752626,-2.6925658035372044,-0.5378956698663935,1.4683174550606999,-0.5277199378061539,0.03685499927118888,-0.7569078274679268
41917,1.875,-0.04017730256716815,0.6886031678489225,0.01658424541207896,0.7238345283218861,30.54888788635284,19.04989089334811,-9.320708292324076,-6.990804835194775,0.2627974248876076,1.3263140027186262,-0.5235367692832427,0.09265945579906894,-0.7612123383299226
41918,1.883,-0.020751080718271905,0.686412051101421,-0.011333350964086244,0.7268283455587633,19.28123458319872,13.693059423620245,-1.6621893717421647,-8.046327871779264,1.0468751232390983,1.2846995227245481,-0.5171697962347797,0.1465621300539781,-0.7637342883747733
41919,1.892,0.00029986387766186445,0.6800205400616164,-0.03971384995058351,0.7321166473302362,18.261766459192984,7.830002749165002,10.463464784081442,-8.363215096813525,2.1537447220439327,1.1150539178403456,-0.5124829561782259,0.19668888744565916,-0.7700654465660035
41920,1.900,0.018971921577716162,0.6724111144044838,-0.06783676978337339,0.7368185204528503,14.15818895713165,-14.067097113670625,18.32246330471627,-7.936003600831037,2.2539754577962046,1.5037271582554321,-0.4995991996847496,0.24746360011562693,-0.7626753273056188
41921,1.908,0.028205404423417388,0.6673251267944514,-0.08806054432578908,0.7390040398016284,6.4509591569106615,-41.76328996886746,22.979320349426185,-5.037990840664898,1.2585729819911304,1.7929344289642741,-0.4942806023959464,0.2867470736452088,-0.7557357132809148
41923,1.925,0.029473315225970634,0.6606028151634962,-0.10697487198841583,0.7424901487903502,5.019468164984834,-36.753915639532636,20.129117918924674,-1.7536529505765444,0.788084264980659,1.514717863219684,-0.48083322602803885,0.32648134705286425,-0.7582736672364359
41925,1.942,0.023946162339480527,0.6691581158111332,-0.09936017596554506,0.736058117804159,-5.062816710514372,-13.312054968387114,3.863806965432939,1.060227349216799,-1.3008752710446263,-0.3005014136259052,-0.49843416599258966,0.3133828498458978,-0.7553332475415874
41930,1.983,0.019162220609515,0.6894828577594655,-0.07746588883090487,0.7198925157443935,5.65331350790229,8.061318648548509,-3.84593682928316,0.8692186067120063,-1.21200515942137,-0.70125271177121,-0.5537249817966359,0.280863812517558,-0.7403805502931453
41931,1.992,0.02144808354485611,0.6927060111622345,-0.08148073357101185,0.7162815451124575,6.534676519425219,-1.7412380786726165,0.18229123837297462,-1.1462720301663276,-1.1019418916004569,0.14971660263235706,-0.56650835112472,0.2914666738264736,-0.7288224749495661
41933,2.008,0.02494272845999823,0.6929784835108822,-0.08804381995274012,0.7151272386478218,-4.522143890804849,-6.580167275913734,-1.6223991849629333,-0.8601740349777708,-0.1085599566985211,0.23589251550935447,-0.5658189529632847,0.3062890389976727,-0.7231490027423866
41935,2.025,0.022663157358317157,0.6845708348637508,-0.08502897123954063,0.7236153863776291,-11.073239574460333,-10.343266043110003,-5.389960104243686,0.5074638513456733,1.42115082052636,0.08585739632630521,-0.5475056679725363,0.3043223408135372,-0.7234404367940201
41936,2.033,0.018786867825485512,0.679588121186033,-0.08486513817056993,0.7284263500611681,-6.973799251244905,-6.289476573662108,16.16537555222723,0.7314408939592205,1.5695399187489483,0.8003900232087604,-0.5394639612938328,0.3048681119522083,-0.7214415216975201
41937,2.042,0.013989828809854705,0.6755309208455261,-0.08658861874210276,0.7320960802898765,-1.2320988660232801,13.110687841017343,3.068833817586182,0.5499775557600776,1.166708620620982,1.2427180968327545,-0.5307918551904985,0.31121058967031057,-0.7381724858336078
41938,2.050,0.013242618438557063,0.6708456234985015,-0.0935410344092499,0.7355547956280656,6.254888172942796,30.17853573960046,5.101483068116819,-1.0432797804161325,1.3182896063561396,1.400219906502464,-0.5103382060904054,0.3202122019583044,-0.7309557422349476
41939,2.058,0.019449516958966413,0.6660022586569299,-0.1053064885403964,0.7382230362331038,17.269582008970545,24.15005377198239,-14.04484616061124,-3.0216930370975796,1.3590289689250246,0.972241391053677,-0.5082069167460778,0.34855742036518966,-0.7222514750468698
41940,2.067,0.029268273078264826,0.6604865658630759,-0.11772872801607152,0.7409728814910401,22.23973636462348,13.934153861415671,-24.678249661130472,-3.728223996484268,1.6083789838405258,0.4640431787327485,-0.49511380276417327,0.3682039674028493,-0.7102758761464838
41942,2.083,0.011062494462739247,0.6621317874963846,-0.09367263013299934,0.7434275725093008,46.043946603234126,-29.427640112453272,-17.14268653970504,3.623752808746371,-0.1138980832958912,-0.3406129734922837,-0.49090013579177183,0.3286331825458954,-0.718600201988059
41943,2.092,0.0018748807796019375,0.668665875337748,-0.07918142281831235,0.7393326276185392,43.527607583962535,-45.39228518028421,-39.26205338047853,3.949593813683006,-1.9305336482511326,-0.9261330120225705,-0.505052186945624,0.2968510525896418,-0.7197222013537885
41944,2.100,-0.006772679640107454,0.6749177164386446,-0.0616692735094838,0.7352802918292795,20.37736998271447,-18.50899144502502,-22.567138124878344,4.413704308070432,-1.872386489563822,-1.4932340289573356,-0.5094706331162665,0.272275742000326,-0.7165867917131956
41945,2.108,-0.010149321830465862,0.6767089145794595,-0.047727999548505914,0.7346319311425075,10.300529574818166,-1.5342511642364358,-5.699500969599694,2.9657527951039384,-0.42022952551030623,-1.7431384438837685,-0.5053321546529314,0.24447749856547135,-0.7150009778561748
41946,2.117,-0.01095016635489825,0.6715150243860041,-0.03918791304648691,0.7398729440598062,7.281363073517284,-0.7566209979389282,4.415545008083553,1.7025473228432888,1.772810440159085,-1.1672616496248618,-0.4994009701534044,0.23491568938076984,-0.724443523574086
41948,2.133,-0.017720395658365033,0.6527332934723477,-0.02313756629885894,0.757027006252894,10.674175489895536,28.72954937960161,17.294179872600363,2.064939394236483,3.0264488421845734,-0.5673081881748282,-0.4540930186791003,0.20431525762901748,-0.7429798884395182
41949,2.142,-0.018412513843664484,0.6455605418296668,-0.015965336037499465,0.7633201649450603,3.6049470262271517,21.356506424617972,45.278195024144466,1.459126985239922,2.3026016015711495,-0.9456255904862775,-0.44208283654837316,0.19362704560524197,-0.7491677131993391
41950,2.150,-0.024952359834877418,0.6456177744930361,-0.0018794447671557273,0.7632506381816508,5.476518487234264,0.7993912459440148,32.13598322527745,3.5889820326228667,-0.07787168174132744,-1.0213485293184938,-0.42837424418370945,0.1690577440615849,-0.7539553418286342
41951,2.158,-0.03467387011514142,0.6550524396279667,0.010401572993123206,0.7547157288330198,8.548180075908759,-23.128186313008534,27.52837439596826,3.6875741487215468,-3.1102058720952797,-0.2111052183014052,-0.44701533330699933,0.14497170541215337,-0.7426376562552773
41952,2.167,-0.044729612533111696,0.6630438195225485,0.016142837065558992,0.7470686474261001,6.025542333466837,-44.52675978619072,-11.154062172195095,2.584232673407853,-2.6996077108958745,0.8964206167939748,-0.4558381254475326,0.14217312859533426,-0.7382252986055511
41953,2.175,-0.0553996485798828,0.6705349597363822,0.020676558562216587,0.7395175634388795,5.51396421976024,-31.958544504822935,-12.600769218126985,2.455694882522066,-2.5757284534242095,1.1862955219859355,-0.4605039611814604,0.12786888688009262,-0.734662592323799
41954,2.183,-0.06187977669922467,0.6753038091927612,0.022021360979713567,0.7346092282200122,3.884404712957757,-8.114265401504843,-5.37480127941155,1.2533988594402736,-1.650496414670257,0.9577397027259635,-0.47373167391906174,0.1194935912333306,-0.7288975485545028
41955,2.192,-0.06363210745107846,0.6763883120837347,0.020131512444168484,0.7335151861990055,0.5470743757990392,6.138053407477577,4.81870137682632,-0.07254869492260183,-0.3353530381987606,0.6038313450400982,-0.46101743714226684,0.1311423098787594,-0.7313436831307673
41956,2.200,-0.06269132344806211,0.678702212418479,0.018160899465369,0.7315075437431945,0.016108774382804725,19.72113578136747,5.82871518002994,-0.5205813044353604,-0.7125462533357486,0.1720153696603091,-0.4632627222453642,0.1315738787864974,-0.7250228632612068
41957,2.208,-0.061721217176065185,0.6836927915023022,0.0203952854976047,0.7268691013707805,2.682899607925521,25.305657959947634,0.3562019807848535,0.16042636956942088,-1.6418196719907643,-0.5146653546095513,-0.472287557370285,0.1264130992728963,-0.7261600655048
41958,2.217,-0.05962549980912756,0.6895288171161094,0.025730388586758326,0.7213409438276367,3.4375923262981556,23.266172977250797,1.0719422563045975,0.522036903872235,-1.9793395850223643,-1.2006505341755591,-0.47340153610281205,0.12499457989415098,-0.7080517729147275
41959,2.225,-0.05721689980246086,0.6954444221914067,0.03285830655633806,0.715544277952179,6.964157854336013,15.786749616459149,3.167183572123978,0.7639111461608876,-2.042319089423092,-1.5617707270308203,-0.47508173295071726,0.11267025828772187,-0.7118525645909644
41960,2.233,-0.05556360492456191,0.7002330233461351,0.041278494236843793,0.7105508319162375,11.268699289219935,9.108530361487649,5.1424234033281095,1.134847456312455,-1.7359233130190588,-1.650748921561228,-0.4838523108467104,0.10307358854128847,-0.714322248679731
41961,2.242,-0.05363972746808594,0.7036646651073711,0.047330708456105104,0.7069219354027176,8.145298711047108,4.872603295152858,4.264902554324288,0.679976829838605,-1.2445395777136954,-1.3210804463738686,-0.48875796621589884,0.09974366634383489,-0.7113299918907093
41962,2.250,-0.05036999976922564,0.7057004893305986,0.04824778801379655,0.7050686728493738,2.1318730491893145,7.496775147592348,-4.5024561371505945,-0.4035826530607337,-0.6867697635926933,-0.6872684455184521,-0.4797062897783275,0.10064767376670142,-0.7137305796813083
41963,2.258,-0.046054488887297663,0.7055093009687105,0.04405572691246974,0.7058290892462462,-4.486696734965772,9.130822374610577,-4.430548630682364,-1.4552873928425716,0.17461972242570567,-0.03010201576919844,-0.4838201249719197,0.1061234122903882,-0.7185644729166167
41964,2.267,-0.0429251872967889,0.703920892394599,0.03999729061489624,0.7078509887606249,-10.278619917259748,2.978791893385016,-4.0627858090653035,-1.2170657632337718,0.61993578449971,0.13847267651028844,-0.4630192088634578,0.1122807628207341,-0.7249392640295634
41965,2.275,-0.04633088434525372,0.69979749453664,0.04320133729092174,0.7115269216637583,-11.02304462518246,-4.719434352687296,2.3324045413216186,1.119555777766672,1.3349535594302249,-0.022982714298356105,-0.4521630337541205,0.1096372578422387,-0.7399225269069424
41966,2.283,-0.049660339955520695,0.6947619521164679,0.048097057481489465,0.7159094590717736,-6.347145526329839,-11.659601372403793,-16.669227056844477,1.4062396257994165,1.5869276359267257,-0.32564822278571065,-0.4421438247748215,0.09518875854663121,-0.7411292263138061
41967,2.292,-0.05400654426935813,0.6897895307576944,0.05602553828478638,0.7198158344278497,-0.9858616392812031,-16.444465643041564,-6.65797651729064,2.087339258972469,1.4948384764940192,-0.6667854098380857,-0.430831732511358,0.08876332765924898,-0.7518449224430306
41968,2.300,-0.053108484680297795,0.6868148029029267,0.05889848299224302,0.7224928263101223,6.587036952450541,-6.800683602191974,-12.455514482323812,0.3480332787306464,0.9290548499473893,-0.6880533664239539,-0.41415207562279865,0.08381652684947749,-0.7620750910742602
41969,2.308,-0.04937370743598227,0.6860434758281101,0.05783058329926045,0.7235759876633407,15.448804747209886,-3.6843588568609236,-13.070168217431647,-0.821052618161826,0.30196422556854535,-0.49905331579815376,-0.4116421269134547,0.08403771843232542,-0.7710999940385193
41970,2.317,-0.0549014423417029,0.6857427589708212,0.064293997287117,0.7229169952772805,31.377120533163374,3.2364003506672328,-17.695332970463205,2.0476686969685076,-0.05192951607366188,-0.12484175496896263,-0.411096583656595,0.07502168038629498,-0.7786454983268644
41971,2.325,-0.06138581658132988,0.6859735249167126,0.06680310715874373,0.7219483703907927,55.421264336777135,26.41286296333005,-20.355368111149765,1.5087494579819023,-0.137204639222874,0.6951727476822607,-0.4144722448436601,0.08145191648597637,-0.7842347665921224
41972,2.333,-0.058758755595359584,0.6883963404506982,0.05511052644099996,0.7208472216568275,58.19812701287031,40.98006648818385,-18.613554887694647,-2.4617225147655883,-0.5155855539632671,1.5219849375083854,-0.4150804714507156,0.09806546307815285,-0.8006069672811706
41973,2.342,-0.04410763178207817,0.6883818723105454,0.029615702696323614,0.7234001830567973,29.794469960039603,25.636638199138567,-19.015340658504076,-6.856993138016856,0.5595960001689431,1.6988473191121198,-0.39871454581692334,0.13808704781318049,-0.8016657447468457
41974,2.350,-0.026048293942899925,0.6816315800376397,-0.0006428060563656165,0.7312314696991844,19.724652018966857,8.199816071273327,-8.324083050225749,-8.206456352138824,2.6048844624760097,1.8661813421859077,-0.39574447535883905,0.19459475498477447,-0.8069772629851788
41975,2.358,-0.011944275619483432,0.6714006984835891,-0.02674425075965199,0.7405154835700463,11.837312983961398,-7.449209195531961,14.202751240576765,-6.810031299637852,3.447658488831795,1.8862879519949038,-0.3748743992225367,0.25299582771696144,-0.8224676163824276
41982,2.417,-0.0017037979483769197,0.6696963183364996,-0.07142484066737295,0.7391903884756146,2.0726327925202317,-18.549543513506112,18.6503973102958,-1.3620533426494643,0.01813694425784217,0.7750515207945402,-0.4168700111895705,0.3480260547422769,-0.8221755538902468
41984,2.433,0.0028787368471094167,0.6791885957155971,-0.06417745676564686,0.731146919823324,1.1816809448070726,7.0027077264155375,-5.424274908138812,0.1725662068572443,-1.3901332456891466,-1.1360219513257919,-0.45962568625966005,0.3444881628866524,-0.8182430477962005
41988,2.467,0.01433969304617338,0.6874714635017123,-0.07706941079789106,0.7219679120247806,10.478952671735533,-1.6618560086046321,-0.11074599053312817,-1.0664894853114817,-0.6908493655347382,-0.032051871096452196,-0.49941793164074694,0.3864668353812173,-0.7865671647853507
41989,2.475,0.01772530741646432,0.6868002036157442,-0.08456194320945074,0.7216928512539154,2.1514806571864935,-1.1063634581660788,10.050010951734274,-1.8810127535553196,0.11792261207466558,0.6585848896971865,-0.4983997261477038,0.39876110163821366,-0.792052169662209
41990,2.483,0.02174028047383546,0.6867023471129862,-0.09087270241266786,0.7209087311377586,-7.211720691003025,0.15456390609082266,6.350661363226921,-1.76536327847661,-0.0674141016946165,0.34793279912098724,-0.4999700962725195,0.41553694306887123,-0.7781489373748488
41991,2.492,0.026306971706319703,0.6873953125671682,-0.09508560221035711,0.7195514962479209,-10.280920989901334,-3.7694629969007396,-12.314982938590209,-1.517337248837291,-0.24814220045830937,-0.12730967791075914,-0.510945264048937,0.42257786621838833,-0.7796615911778492
41992,2.500,0.03061241892441293,0.6835739037733248,-0.095726372463183,0.7229288066626851,-9.674243563930707,-12.460252097365052,-15.673271903174289,-0.768815113107168,1.3269752739160046,-0.4915551683666964,-0.5146498420130928,0.43104813312574775,-0.7740779570162098
41994,2.517,0.025376202760239153,0.6718154734075892,-0.08999484521407745,0.734793131335958,-9.524192983078198,-13.43088428601668,5.522306704537863,1.016951072819422,1.9575961355090894,0.20173918976257507,-0.490031145623061,0.42121103070499155,-0.8009568906731261
41995,2.525,0.016942890071569343,0.6683562849545454,-0.09014561397389537,0.7381643334102851,1.1569213178955084,9.24489837692862,14.868856905428798,1.3833120702484412,0.9391928805964675,1.6064684670200953,-0.48882665721834384,0.4151678824055788,-0.7988150964057337
41996,2.533,0.012756441799514752,0.6639241820348196,-0.0960338726485324,0.7414981112626902,14.709821031591753,48.92668238149035,3.3128718253980884,-0.3007138657202195,1.1525658729552144,1.825747017762749,-0.4736355696270884,0.4364481313591729,-0.8059237018924907
41997,2.542,0.017611858146620918,0.6589733386811513,-0.10987536296164109,0.7438893506255404,39.88485727587443,32.84590368128865,-22.960504814891753,-3.1925563698111747,1.3017156591672823,1.5132915623689231,-0.4643716991750079,0.4601915633158052,-0.8041126752795723
41999,2.558,0.02416233694450029,0.6540833066168614,-0.11189448103969296,0.7477103948664825,42.01476985343588,-15.223640278567466,-26.753429228088425,-0.6576646410385357,0.8314623688873406,-0.33021029042359346,-0.4746784457128516,0.4711454480298979,-0.7971870163620536
42004,2.600,-0.016746698664397233,0.6711332969125963,-0.030786028733604233,0.7405078435059869,22.693793705709723,-20.14356499431646,-16.646767817912842,4.173355913348466,-0.9223179863170177,-1.2482800832547698,-0.570599117491835,0.31915670383377553,-0.8332357771970732
42005,2.608,-0.020648129556742962,0.6660032208188662,-0.023124486593650406,0.7453043826011525,10.762125265537362,10.937877064531024,5.834598941169067,1.9883731337864516,1.7035220821627621,-0.5365895236887057,-0.5592732078513686,0.2999765862655858,-0.8457726576810476
42006,2.617,-0.018733850205138465,0.6563580893427954,-0.019714838679519415,0.7539591676918634,6.992802756108354,36.952699830983875,20.94674084223352,0.3962772572884558,3.127871245915424,-0.7948516734601653,-0.549990357894878,0.30093108384158035,-0.8464632040138577
42007,2.625,-0.011407148612598969,0.6485005981097348,-0.0208254507867879,0.7608437105026064,2.2600389018532776,37.68170676667292,35.65307542590578,-1.3095378882310411,2.601854494527093,-1.0785935580187034,-0.5406578473961802,0.3002266293645069,-0.8536992041253862
42008,2.633,-0.008530328742098858,0.6454223359796448,-0.020281102000213973,0.763508951232261,0.42082273459027,12.67613165374455,29.386632210540522,-0.32797520331605323,1.007856654930023,-0.5770376837845157,-0.5448669268683525,0.30240971391919114,-0.8459795287643527
42009,2.642,-0.015502017747387754,0.6464675265619877,-0.01336312737472371,0.7626669334469358,-3.0103072184103437,-7.484254329724066,27.796213834312383,2.335345564973755,-0.35682641322115916,0.15907374076846328,-0.5543892408006786,0.28922466216400516,-0.8459063092281425
42010,2.650,-0.024375229187048944,0.6556314236550911,-0.007767711609406437,0.7546475648767644,4.065815047783391,-22.771939288213066,22.912372930921403,2.3500270716548317,-2.990744405251244,0.6435229227884248,-0.5711635126946867,0.2688941055741064,-0.8232055126615896
42011,2.658,-0.03327662098438301,0.661778721451017,-0.00610045294789342,0.7489354944214824,7.6757447185532595,-36.693560256500135,-5.442882417661626,1.656156813718769,-2.0628222257733575,1.280729562432085,-0.5853305577260868,0.26941102519670435,-0.8223512602972525
42012,2.667,-0.04290075642623655,0.6678115241310699,-0.005221946568061856,0.7430747099786366,10.414016551291244,-31.96343437165672,-8.575542985476007,1.6452529474723385,-2.082459386873365,1.5480071668421629,-0.5994374183868824,0.2677136112029648,-0.7972499276671777
42013,2.675,-0.04814945624899123,0.6721470887051376,-0.007039964295540846,0.7388168649339649,9.381603851810114,-10.220077703625636,-4.619236210576713,0.45878583000361145,-1.4634690398544548,1.1952428889749813,-0.6063758547747206,0.27251014538671176,-0.7837661050362312
42014,2.683,-0.047348682917660985,0.6732315061795917,-0.01110623925896105,0.737830666726888,6.33933546581527,6.920216288169621,3.4283439132544298,-0.8572126973027921,-0.31779038740759186,0.5138000713924652,-0.6042111574655709,0.27630048800797646,-0.7794651383330723
42015,2.692,-0.044947478552478236,0.6757609228279458,-0.014433656723220951,0.7356076188458721,5.039653315628909,15.645408655426925,5.999184194639877,-1.028966356217354,-0.7493862498130547,0.09240997598820636,-0.5975279917666407,0.281779838031742,-0.7593032853222643
42016,2.700,-0.043768194599357886,0.6803435214647544,-0.014597306353347368,0.7314396465804114,3.9159455838309594,18.933018785340423,1.3064729187850446,-0.28199123129359277,-1.4733110883063223,-0.2011331993945744,-0.6017270023311969,0.2792829983003316,-0.7529107313834641
42017,2.708,-0.04274958559380959,0.6859240450619847,-0.012201626693623855,0.7263138423872917,1.7818495392212716,18.386884883181615,-3.04365300586691,0.15914230588117334,-1.8050496715935902,-0.6109846069280461,-0.6136261447820579,0.2831623031365349,-0.7291787551093667
42018,2.717,-0.04197082038504067,0.6913879974752226,-0.007673111292421855,0.7212227191003502,-1.4176647949691656,12.983742554183369,-1.257337216159921,0.5869823784416343,-1.8080973350910616,-0.9103961469434914,-0.616182443346153,0.2745730287859433,-0.7140447599274674
42019,2.725,-0.04302278059493098,0.696716512930891,-0.00017819483535122605,0.71605524172783,-1.2178215839257551,6.493759321766826,4.212253576563156,1.3896154527310147,-1.8098269158131386,-1.1012434807311486,-0.6262347958866091,0.25691001335717484,-0.7084696094732729
42020,2.733,-0.04536454256932224,0.7014648728706202,0.009124888262985796,0.7112002719489563,0.3458935142156354,-0.482580509426903,7.471274207495489,1.935900934269494,-1.6894770576102323,-1.175475212786877,-0.6384860928086666,0.23974227891394956,-0.7026815275684453
42021,2.742,-0.04705871447571942,0.7049102792974555,0.017034160922416025,0.7075286657757024,0.6586255009007851,-2.8127570980911103,10.508629333550457,1.5871132659372866,-1.2435275581445704,-1.0610017624070203,-0.6412432395900948,0.2258551803484092,-0.6932545672526077
42022,2.750,-0.045893805146438864,0.7078703322331006,0.020681367877884244,0.7045464018899542,1.1727939303657933,0.404939894888923,11.18026080576291,0.39834312503461844,-1.0290912597644006,-0.8099435957020426,-0.632290674479228,0.2227488574005227,-0.6825918943727757
42023,2.758,-0.041928038189620646,0.7110934260489877,0.020358019040112554,0.7015509461929657,3.6233998238054177,5.194552687185514,1.649672297084174,-0.7650113577454895,-1.0399839244685012,-0.6087387306831641,-0.6448105385118881,0.22057539339157584,-0.6735852322251563
42024,2.767,-0.03681400021159848,0.7128047452078269,0.01761055583114505,0.7001742589676826,2.479344671366388,11.451363584537356,-0.31510845082273703,-1.3454586728152944,-0.5088041735009502,-0.38204540478512905,-0.6323947381756287,0.22144454025271051,-0.6688758919983725
42025,2.775,-0.03298742424248325,0.7130103371802734,0.016390594684847732,0.7001852878501491,-2.0394081861804274,9.09422511591414,0.9037155537427843,-0.8744758427445444,-0.012527492469758704,-0.4426521813736018,-0.6206972293778613,0.22738791207922673,-0.6660317638263824
42026,2.783,-0.03425402359363176,0.7096085688991457,0.021334005264064954,0.7034395503751167,-2.044334460755586,-2.5336629519588656,10.015150748825306,1.0596472767183172,1.1147716151572564,-0.654727639061302,-0.6203966314274371,0.2230157339241995,-0.6734721340904836
42027,2.792,-0.04059609701216326,0.7029501417501561,0.032484145421996465,0.7093361935056025,0.4908028100809757,-13.706895256355303,-8.593360923766586,2.9713540889375203,2.107760150270544,-0.8865530236874544,-0.5946754399981734,0.20680008939024955,-0.6847661488212231
42028,2.800,-0.04963702109241837,0.6941413334711986,0.04815585072815777,0.7165088899270856,9.185244366444225,-22.5036575578894,-1.517599549549018,4.217091775468217,2.665010206946318,-1.2043681012781242,-0.5789478931251177,0.1785546474562609,-0.6982229551389801
42029,2.808,-0.050530210161103664,0.6894504103567614,0.054668838157724164,0.720497153120297,18.38281085634524,-13.063809664875597,-11.528436039585163,1.2575546124649866,1.4458168605951873,-1.0197381981244034,-0.5603536190382739,0.16740721884203383,-0.7033702357271197
42031,2.825,-0.04993055590068736,0.6886860499532297,0.05182432792623753,0.7214795237719921,29.816449115223655,2.0159329037721685,-16.649268091114777,-0.2928576936896612,0.15621436130693617,0.17235526585015384,-0.5456297396755794,0.17517182743896012,-0.7132582001709165
42033,2.842,-0.055937527427095485,0.6991991209491394,0.034150197270264505,0.7119166709072738,48.33087811409075,30.017872056953834,-18.592190290551066,-1.031054091422008,-1.6071719919253444,2.048172056676717,-0.5404201767193823,0.19924825566379328,-0.6919474344704113
42035,2.858,-0.024705947892002336,0.7109038571900368,-0.01801485931405575,0.7026242145094205,14.177447823708388,21.495701884045392,-22.19907383792474,-7.109308497879264,-1.6031627741402237,1.8176777031116649,-0.5484442819927617,0.2958184272989446,-0.6640866678551715
42038,2.883,0.025392982197603966,0.6896779314598118,-0.07133813527682327,0.7201461086249463,12.113124806903153,-7.405339745508881,-4.523307648217469,-5.781239514320946,2.36895309514806,0.3198907252344932,-0.49449577278082574,0.3891404159514236,-0.6630161830065269
42040,2.900,0.011774439367008711,0.6710904058760182,-0.05222014862462119,0.7394403869118702,-8.816247620466298,-53.2677533595394,9.65771018546423,2.88587297488567,3.168078555029157,-0.12311823649455189,-0.4519350074981575,0.3539213643246625,-0.7056180480710496
42041,2.908,0.0004332142689429625,0.6684815459575852,-0.044746675656622034,0.7423812834771868,-11.254684573395357,-40.37525661931282,14.752084557196177,3.1744875721046166,0.8135722557309635,0.8315914290847336,-0.43623179382490646,0.3328538902415385,-0.7158676434416718
42042,2.917,-0.008499693299141698,0.6712065458345343,-0.04061010897373897,0.7401083346996136,2.0727030737522285,-15.966403148280087,25.596039844783782,2.156023557138861,-0.9705745631252505,0.8467327008162158,-0.44936333199732525,0.33191982746923915,-0.722778783683024
42043,2.925,-0.01667949339834995,0.6762386279979158,-0.03723063777607737,0.735552168179972,17.57205718344042,0.418230890403352,22.535024877481803,1.8495424244263037,-1.719111926178127,0.7796478532988036,-0.44346858347990253,0.3168822797608508,-0.7274189243899518
42044,2.933,-0.028029637886006816,0.683077691475533,-0.027504141206682865,0.7292891943700516,19.869171824333115,14.445744192837632,15.45892412071796,3.4820136149610614,-2.373165531534531,0.2855891440943968,-0.45638970616529856,0.3060654397481057,-0.7298840333458945
42048,2.967,-0.024861376838098446,0.7146205968733451,-0.008321901233636228,0.6990207868339507,5.055109825437015,18.760143774151516,2.997736188615889,0.5973435277156315,-2.615576834257132,-1.0194241688225327,-0.5238624765056151,0.2763810436316764,-0.7182828519677942
42049,2.975,-0.020906012613466265,0.7157758363260508,-0.009516527149845067,0.6979522379642855,-4.541889272444763,-2.4734944293410406,-1.226829409031606,-0.9137761220473791,-0.3209382180867151,-0.47965246897550073,-0.5306691870432821,0.2818856336714364,-0.7221610118168897
42051,2.992,-0.01611275826922876,0.7094825104404698,-0.01634961803053164,0.7043490870231194,-2.9010408198956403,-8.769581689036062,4.443627291607737,-0.9563904001484527,1.0940435031032358,0.20919440701527942,-0.511340916067974,0.2861195632917565,-0.7275131069297369
42052,3.000,-0.014434567825411741,0.7065808996688098,-0.022661072677933748,0.7071220200644264,2.4784251604564314,-7.296466518345481,13.30128427114077,-1.3441740926952463,0.9902616715553323,0.8104659266356489,-0.5088917182740295,0.30465172558165954,-0.7285308015333036
42053,3.008,-0.012248170091686732,0.7055183864525257,-0.030692955137357564,0.7079207096926647,6.03392386254379,-2.156348877924927,15.774610185129601,-1.7150771913315255,0.326346210795017,1.0100529728247432,-0.5085816259663793,0.31782836062446757,-0.7372225652300491
42054,3.017,-0.0099339198843052,0.706981139320288,-0.03796943180367031,0.7061425551045812,6.464568895722351,5.577289785026771,11.830069831126293,-1.651828135737612,-0.5235604942919861,0.8139126847515401,-0.5071589605786264,0.3282508999579259,-0.7316577352215643
42055,3.025,-0.007912001930699592,0.7100954409302973,-0.04338876807990075,0.7027227616919522,2.2427402017004057,6.081934604914229,6.2066390303668175,-1.2926668793773348,-1.092204722392526,0.5273459276705276,-0.5096817507888844,0.33687263732466943,-0.7209402721895786
42056,3.033,-0.006960264361427475,0.7151263573371115,-0.047326409934565064,0.6973564789148222,-2.075594119598106,0.5442784352605892,1.632429502699438,-0.8989900066875344,-1.7477410899248662,0.4084565484060089,-0.5219139678175168,0.33868185600376205,-0.7176669948954738
42057,3.042,-0.008014120366881395,0.7160388021535529,-0.04977165109806262,0.6962377398792909,2.8123783867975076,-5.712036267973375,-12.707471729051674,-0.23496209954754896,-0.3690910984670053,0.5716231598410159,-0.5299772351027272,0.3411510480524588,-0.7168241376903325
42058,3.050,-0.008535518454326792,0.6950216658965307,-0.058734915714029216,0.7165348829856036,21.62354085610446,-15.126255546112295,46.62743064479161,-1.1227653609380697,6.966785118001474,2.039146544141617,-0.4770532690377008,0.36702947195622726,-0.741612936192393
42059,3.058,-0.02334475666794608,0.6891694762265193,-0.0657255023818407,0.7212354772960314,18.544103750387155,37.30844227422357,76.86687555574204,1.378284619240072,1.4846595318442504,3.813952189723183,-0.46799125007880665,0.3644737253593109,-0.7453767087623745
42060,3.067,-0.024018635549394853,0.6972860918122812,-0.08397887288869088,0.7114511650281035,28.287917501450597,47.186591732672284,-64.69047655755396,-3.2306918148228587,-3.018891633009958,2.985981421545094,-0.4781300638594675,0.4074766165533341,-0.728405628536743
42061,3.075,-0.0045814066330750695,0.6885785043365416,-0.10583760499060987,0.7173820847001727,5.812939750273949,-10.95539535390697,-47.06547127200761,-6.809479411752988,2.981322146427873,0.6134868474960136,-0.45895179597635755,0.42865949670075076,-0.7139867291536939
42071,3.158,-0.014941986128140088,0.7149303657945629,-0.060342053848200364,0.6964266979753001,15.188650562639678,-8.087439581648116,-16.84175400577221,0.8966681252090554,-0.8105578100998883,-0.6768749888928038,-0.5322467530934011,0.34094428222764744,-0.7073093284177838
42072,3.167,-0.03051465810291657,0.7216686243137683,-0.05089483347872675,0.6896904872818733,8.348166312627617,-6.4948940329967675,2.0322454620937145,4.055310674183137,-2.4449629664711887,0.752568799423589,-0.5447049359240593,0.3246084264171057,-0.7064324900451633
42077,3.208,-0.06808510873784339,0.7158983018514998,-0.045719943208344556,0.6933712758452866,13.12902139085317,-8.337543858286974,19.180863026764122,1.5018526382247621,0.18852345532821474,1.061071949796387,-0.5167503068268007,0.27991893548730085,-0.7224857863413379
42079,3.225,-0.0812942326439002,0.7281304904931809,-0.04565659897250025,0.6790675309004722,11.473854417612074,12.580404991246052,19.372503426053235,0.9419270714862763,-2.3265204519211933,1.0404134217772931,-0.5355780071982127,0.2727061070747044,-0.7187516238836531
42080,3.233,-0.08025665909822327,0.7361291774548723,-0.04816772450332264,0.6703376560258099,-0.6720841364145603,18.637717136591103,7.207821066122029,-0.8538126480293843,-2.7646011157285173,0.2595895863644995,-0.5498562480721079,0.273167731331875,-0.7032413243824623
42081,3.242,-0.07511123661589508,0.7439687539640792,-0.052086586769558164,0.6619333672945215,-2.9414564159525702,21.58741875149333,-2.0725714538851197,-1.7849854478328917,-2.6077290158822914,-0.13484697379536953,-0.5614161859472966,0.27130321728735524,-0.6920382226432149
42082,3.250,-0.06836505146603677,0.7504904808150575,-0.05689575460468483,0.6548687891875697,-4.583543959450438,18.687692578062705,-10.18437474978566,-2.184557482666519,-2.1086178021409347,-0.22676361481742874,-0.5729474128033754,0.2817834596529598,-0.6846193455654854
42083,3.258,-0.06245266586471255,0.7556332347559988,-0.060786198167946094,0.6491711000736738,-6.804786477435723,6.58985837189811,1.4537483295098224,-1.8369224715845947,-1.6828303853707616,-0.248225989224995,-0.5776880448539258,0.2892643684225927,-0.6711981920838591
42084,3.267,-0.06519244529097608,0.7546562844658627,-0.054182591279145695,0.650621306287643,12.375883166873827,-25.069946512172592,18.086993381380797,1.5500822614925038,0.3122660842888108,-0.7926949812221388,-0.5673310540902294,0.26272716486144054,-0.6847462365683982
42085,3.275,-0.09998187108809399,0.7098079922541898,-0.013737424526397996,0.6971280533396869,71.86423839464415,-120.79992132960008,127.43995211160275,13.926535676895368,14.415701035636806,-1.7274937976995637,-0.499938978964386,0.176271776307541,-0.7500707045394843
42086,3.283,-0.09491874676859546,0.7267426623106009,0.03517197836474577,0.6794103813068281,75.9396843209334,-74.5106299317099,-25.848756455492122,6.766569337104366,-6.7468668174917905,-9.093349795888471,-0.5424734674542417,0.10345706484147839,-0.7431118393912886
42088,3.300,-0.1302056479852947,0.7245445896959591,0.08359316451772612,0.6716351759854127,13.276315125638316,30.35474867483606,-33.71257427594034,7.080611683032114,-0.8618050542454213,-1.3542378818997638,-0.5644258279020803,0.009345270997065992,-0.7458702579126911
42089,3.308,-0.16353944556701988,0.727111869021212,0.09390384325625702,0.6601100271120081,11.680027728462571,108.22798953658739,-32.85507751799892,7.604245655183703,-2.183747555676036,3.8420462733490575,-0.5737735147898466,-0.024574258573042983,-0.7366339503385329
42091,3.325,-0.18218614038763856,0.7352081268029206,0.06557760886976052,0.6495974120549753,28.30151087847552,48.16594799004795,-20.760381135546606,-0.6219769898190932,-0.9172479211466996,4.2196015042334425,-0.5973427318321375,0.013067096328226488,-0.7193620379784801
42092,3.333,-0.1757056459277196,0.7401557250845946,0.04520682678477378,0.647497777158866,-6.018356864008524,4.177068394568843,-25.144655409779467,-4.468216792836745,-0.4282718010875548,2.7723534567572914,-0.610722133806004,0.0368165373305174,-0.7257833751332311
42093,3.342,-0.16985784666699813,0.741862454628017,0.025772221547969407,0.6481698874025436,-12.034720821017421,-16.276234364402576,-27.77873643659401,-4.115944584059314,0.535032798251544,2.575063297225016,-0.6136041558340242,0.07546648133984908,-0.7320769845003421
42094,3.350,-0.16547333382984344,0.7413620918800026,0.010479659092149917,0.6503007006453682,4.345308243305485,-20.594576754877206,-28.487113025569958,-3.1267987659088057,1.0033399502807199,1.9992637761164969,-0.5999869953457704,0.09766035826204715,-0.7248135340568026
42095,3.358,-0.1520325236101378,0.7394078080578347,-0.007180111571064641,0.6558282177107573,23.976304595963335,-10.312365319658904,-18.51289265919949,-5.07487245177919,1.9307616629219628,0.9089308975259637,-0.5975524813594353,0.13334703307049856,-0.7238958453614556
42103,3.425,-0.08386096641457996,0.7188574051884462,-0.06235866689420042,0.6872574233727311,21.614185229256204,-10.232899374987845,6.835468964678168,-2.499054507435101,1.378512369071503,-0.20392235530798494,-0.5325512627841383,0.21834902144164273,-0.7315329912798875
42106,3.450,-0.07195419324074126,0.7282189175232646,-0.044600022534794795,0.6800960522060213,-6.809441778395762,14.296247028602444,5.504662905672999,0.18186878804763923,-0.9267598832911716,-1.713190853960798,-0.5548303510226275,0.1856208106217724,-0.7234070243524322
42109,3.475,-0.06114374397419935,0.7440679925645066,-0.018020074555636343,0.6650560441999248,1.740793195466143,-2.0835994075640634,1.0342963334041704,0.6605594048279204,-1.7871629522552333,-2.1721953986099263,-0.5883224020081531,0.13035491235354515,-0.7176310194427618
42110,3.483,-0.061135850512394764,0.7468173605668316,-0.012729177158097365,0.6620907836445052,2.826069297281923,-15.933728992161827,-12.388141643558406,0.7900308711231309,-1.01132656314634,-0.9563438712994384,-0.5812750874503372,0.13390122092154752,-0.713285795098379
42116,3.533,-0.06953162429484955,0.756419936998758,-0.011415679112394885,0.6502798739036278,3.4774662701525503,-5.4648019731022215,-0.38519150084787085,0.26084866534871515,-0.619666275309516,0.17982898083858803,-0.6121617994694373,0.11585471907145002,-0.7291075022870207
42126,3.617,-0.12768159485615901,0.7321594024605824,-0.004437037708954801,0.669044342640994,-4.2623080300242835,1.8952119313348037,6.577358138716766,1.218834849241879,0.6724682174566956,0.7597445803732116,-0.5771869229727019,0.0489785539773263,-0.8016072484704485
42129,3.642,-0.1482019029832533,0.721099127727771,0.0003848908689887589,0.6767954608309731,-1.0373531280688764,2.1330286522593256,5.59428814383657,1.5798401630945325,0.9699051000140548,0.7475961079739932,-0.5755928763209777,0.02209633605665571,-0.8186311396477861
42130,3.650,-0.1545650383768518,0.7165305531384036,0.0013675469940160384,0.6802144846634441,-1.777117896770891,-0.06733713106354866,5.694547466184761,1.4277988321065114,1.2777295182983288,0.7594871691083461,-0.5630799893994427,0.017946553317835953,-0.8267181912485311
42133,3.675,-0.1696935205499054,0.7044609456233286,0.0019251178503263246,0.6891554099737786,0.1647719223704635,0.4230100975957121,5.438229973054831,1.0541890962021618,1.144591313709726,0.6985183434320408,-0.5592869436433759,-0.00918691153511529,-0.8439622265479313
42134,3.683,-0.17369862124346772,0.6999066669128718,0.0016142119289294069,0.6927891749362725,2.0554176262198567,0.32785549005314757,5.127706278379622,0.8101467103673862,1.362866068993676,0.5890542356632624,-0.5456137201289674,-0.009682192520658309,-0.844088102319548
42135,3.692,-0.17747719661009057,0.6953142886231578,0.0012341358184725058,0.6964469553588967,1.7302928493195036,-0.5685676123027532,5.336594464467023,0.7687912263634786,1.3797689943998428,0.5659539932280891,-0.5379175100135284,-0.01702004754328494,-0.8609106199093263
42138,3.717,-0.1871589309362073,0.688061226539978,0.0020072765100987103,0.7010986050079756,0.9110247281585259,-3.7668091219614297,4.3416102363248985,0.6893382105808475,0.6401413804351175,0.43592235797189344,-0.5336475519139645,-0.020417293318622288,-0.8766543365713376
42139,3.725,-0.18954509874656833,0.6872400227414107,0.0024348065676423132,0.701261633344159,1.3253265323200665,-5.0308932591430695,3.9739653591067126,0.500298311176649,0.13473618930577083,0.3125327048595866,-0.5480929867496411,-0.02391912077915532,-0.8712868345029856
42141,3.742,-0.19460492565492615,0.6847448979933448,0.0044755726065400635,0.7023057146519375,1.825622404608711,-3.8691667156069207,2.5798132529993474,0.6503888316215873,0.24506536126927794,0.22834209596065283,-0.543688358032789,-0.036171313595401544,-0.8726010496679808
42142,3.750,-0.19709759328360618,0.6831607114994164,0.006132344054172648,0.7031403667418213,2.3627211747997356,-2.5815440492213573,3.3463285855332336,0.7555601511591128,0.32336713383212184,0.09859292113531977,-0.5439311326960813,-0.03837483295378111,-0.8727820149035023
42144,3.767,-0.2028003961906776,0.680091155454805,0.011144530531808876,0.7044315573682641,3.085935891254249,-1.5761369801879836,1.9075213934083302,0.9655187508525226,0.2502817830265819,0.030488654396074955,-0.5566319716112941,-0.048121769326239065,-0.8721017709079756
42145,3.775,-0.20643980146601065,0.6780466220766903,0.014256352280981129,0.7052886948482195,3.2365425148194342,-2.2408255838524074,2.114942662080824,1.2096886706919308,0.33883582963043685,0.04810858355293265,-0.5500483721598491,-0.05077729239605189,-0.8709963126934263
42146,3.783,-0.20969310075452496,0.6774959169070502,0.01756195073725636,0.7047834163461356,3.517864199453686,-2.7216033731669036,4.05218318165879,1.1213843353181938,-0.14162245496083234,0.016139354182307646,-0.561264919208049,-0.0645081152899089,-0.8728738497929838
42147,3.792,-0.21189938826099208,0.6781504926741099,0.020654122626465148,0.7034088183688136,4.9376383596808715,-2.9944652808178125,-1.123190735839728,0.8493187685306127,-0.4806197502189843,-0.08954444442636937,-0.5666324473769129,-0.08235145269413459,-0.8733641823649823
42149,3.808,-0.21276807069899248,0.6803559996828261,0.025638523868242547,0.7008481489455964,5.394709740702117,-0.8117392330248007,-11.58799160152004,0.4428663476156408,-0.5103025532178121,-0.2873749804747571,-0.5771950928259242,-0.07428269934508044,-0.8648896614593964
42150,3.817,-0.21165806801762332,0.6833420392194702,0.027387389821719024,0.6982080281385892,4.729534385520576,2.486455109104247,-10.39059841046018,-0.03284085804311674,-1.0210682632606853,-0.3621507002389626,-0.5894146872446082,-0.08229254582862869,-0.8632800935472993
42151,3.825,-0.2088280152833549,0.6876181974381094,0.028570311471202064,0.6948063124981083,5.877254757972365,5.699482237586963,-11.021837931008157,-0.4611319877525052,-1.3380708427761827,-0.5106855771678523,-0.6026679826718097,-0.08079828615962178,-0.8541431511866961
42152,3.833,-0.20479757641997776,0.6927542207897417,0.029935799911926863,0.6908352843870487,3.201017330845125,7.2520411849885535,-14.69828033402534,-0.6741946217575753,-1.5873695453909829,-0.715288410214535,-0.6170996457199698,-0.08899446366428605,-0.8505908246003774
42153,3.842,-0.20029336065342718,0.698103804927974,0.031649044065281455,0.68668186610176,-0.5511028868544335,7.592828886734772,-19.567319678792163,-0.7007159899485489,-1.6694290215547667,-0.8405564794635878,-0.6264556685773521,-0.07745153053741248,-0.8402558036131608
42154,3.850,-0.19552068148272578,0.7031899424539927,0.03322816043013662,0.6827821448298941,-5.784768144336292,5.557465066096232,-15.538957173917867,-0.758967952679011,-1.5768224079563216,-0.8749524171144601,-0.6472187897684315,-0.08033666190245108,-0.8388625304982291
42155,3.858,-0.19106918657355812,0.7087144072323277,0.03467439576172244,0.6782434232648403,-9.282972003406604,3.5095634158571163,-17.771386091349736,-0.7395553761772433,-1.7520898644328562,-0.7701003598508854,-0.6575713936563546,-0.07555455347674077,-0.8258926934059382
42156,3.867,-0.18657566226286595,0.7142293386403683,0.03520082810764637,0.6736667394023925,-12.173036802389975,1.6337718142824253,-18.591005485805347,-0.8942455143834737,-1.716505443453784,-0.6177444817002335,-0.6742404799993714,-0.06478699978376401,-0.8170557640385229
42157,3.875,-0.18128223056943998,0.7202302659816319,0.03442337639657902,0.6687452040958916,-13.010197409054319,1.5708436738924594,-17.873886684151252,-1.2604361588809776,-1.809156566216572,-0.5027134715787908,-0.6837705644841778,-0.06304269701583601,-0.8159583552801304
42158,3.883,-0.17565745634460248,0.7261909523343113,0.03256874277969901,0.6638753164353082,-10.315502282814093,2.683014805174178,-14.081608476763348,-1.486861581929109,-1.7480438575601962,-0.37013560040989957,-0.6989731072413045,-0.05277042430840231,-0.8073399141088172
42159,3.892,-0.169796227037707,0.7332840772662245,0.030416989415581457,0.6576765999079441,-6.756036011267611,0.4926955105244588,8.932660782860163,-1.6135946815640059,-2.1571281735530676,-0.3008002972693809,-0.7107915433194802,-0.04432059220473824,-0.7942453535490116
42160,3.900,-0.16407635938848622,0.743343627767101,0.03258916553663513,0.6476551131871744,2.095153698508974,-12.064865980400969,23.31180388092421,-1.0021512067484515,-3.4500962689349772,-0.9066879955070956,-0.7407523858132318,-0.04656377733714886,-0.7712022079671076
42161,3.908,-0.16653024999571353,0.7472845294340233,0.04827264800263928,0.6414851980831272,27.876998547912475,-35.582911576660315,13.893726406327545,2.75562855664935,-2.246087957279911,-2.2382617149293496,-0.7532175548882698,-0.07752725058539586,-0.7694045552488997
42162,3.917,-0.17034895533041466,0.7477825296854517,0.07932133179911806,0.6367971796707941,112.22891067491844,-90.79777753757418,10.958881437857475,5.461571614558806,-1.9661641944786852,-4.901228771396,-0.7565816070021536,-0.12465827576004479,-0.7443443289787365
42163,3.925,-0.15927892080496453,0.7482600519505941,0.08648109140969477,0.6381677999325006,51.2393879002638,-10.77429307087865,-14.268770535618993,-0.9578602826268408,-0.24041954809926938,-3.032161519500123,-0.7656589482518306,-0.14084987399022073,-0.7385610185292619
42164,3.933,-0.15984217462212924,0.7517072247160705,0.09001537231459544,0.6334697784968095,32.59960500262536,31.1148829685916,-12.845907007764534,0.5945871290472579,-1.4820048929878105,-0.3606558239074654,-0.7720573409799183,-0.14480370516218702,-0.7318978317683904
42165,3.942,-0.16573321937606392,0.7548480058248821,0.08998967325631631,0.6282028707389564,43.713889622602586,48.72408120548402,-12.582730870005788,1.064228835064629,-1.3324517418679545,1.1161781687076533,-0.7728703387028322,-0.148886164323123,-0.7212803981424274
42166,3.950,-0.16086879223878217,0.7580605734591666,0.0824677589714346,0.6266294498191295,21.086631985379803,40.79758545697419,-4.727595985830155,-2.10339284958057,-0.594694581074095,0.7505211406166638,-0.792458831609085,-0.12570172542983887,-0.7138096501194074
42167,3.958,-0.14929098267111265,0.7647219725547026,0.0695487840969943,0.6229570401045066,7.952576588268055,20.48972002448443,-11.085417371935689,-4.224060164576814,-1.4260460045380967,0.8661253785328903,-0.7902686701122856,-0.09099118683443694,-0.7128649629868311
42169,3.975,-0.12408040851132815,0.7781041072079795,0.04071255748360957,0.6144107243797742,2.4360018329079143,-0.20017788143023993,-16.251928672096785,-4.625325076615054,-1.5077055627538358,1.0112370667721726,-0.8245295850450295,-0.02789936543705829,-0.7022885287780509
42170,3.983,-0.11618493613846595,0.7836553419879851,0.034531892827579055,0.609256033179762,-3.680135567132939,-12.967105320790195,-11.971057952527566,-2.4900454066626847,-1.6752255205839317,0.1612704459391,-0.8297458981390033,-0.013872814503451328,-0.6905299841014079
42172,4.000,-0.11166894752620796,0.7893923507687874,0.04218164555794081,0.6021714635252499,-4.553328343223807,-24.920747042914936,-7.191191033903305,0.08011524398277714,-1.182345609245766,-0.970092939327521,-0.8505842899616546,-0.030142550569468903,-0.6792157472203116
42173,4.008,-0.10950235876948636,0.7919761243218714,0.05119796557143718,0.5984662231482845,-7.2880110582449795,-24.96349858853145,-7.5242152699920215,0.8475976398442095,-1.27159840636974,-1.9509097894514185,-0.8573016400046997,-0.037224343326376606,-0.6626923541119166
42174,4.017,-0.10640442901094699,0.795881700827112,0.061400082034009894,0.5928578629837132,-6.281921688277507,-14.508179361518907,-4.910891640973173,0.8293530664080621,-1.8667277515816465,-2.2583776452409423,-0.8732884604091622,-0.059967592766185324,-0.6472418976540235
42175,4.025,-0.10604938767856488,0.8001671796327189,0.07296031615186654,0.5858009937501313,-1.9871544241097743,-6.638326048090303,-1.302530437335805,1.5530617154841193,-2.188968799378711,-2.1037413969687444,-0.8775154705971915,-0.07163674621530947,-0.6371588837822927
42176,4.033,-0.10809362655252666,0.8023620656108207,0.0836150983704292,0.5809814101087606,4.084021643900274,5.899444665042646,1.6884103514819147,1.9101310925057988,-1.4205084485132662,-1.6619975317602298,-0.8842611394669024,-0.08105068631956643,-0.6169029585111012
42177,4.042,-0.11441815699616281,0.8026728900340403,0.09215103491943126,0.5780423027056765,9.462121347251395,15.147985359114765,10.199509066387321,2.450202549290679,-0.6749674562373383,-0.7293071380525976,-0.8916884176790589,-0.10360760473825911,-0.6033471022666972
42178,4.050,-0.12434366403683837,0.8025748693522012,0.09865302799106129,0.5750476609520173,12.156406666629223,13.713553544340225,16.15378835106419,2.887725378473732,-0.5267247780997174,0.16000268452488428,-0.8980952011762912,-0.11192519735287479,-0.5955779793004901
42179,4.058,-0.1331257548493851,0.8024043303925593,0.1029601893728063,0.5725591876543119,14.363490491592728,4.48908488139085,14.486449907473,2.352455497472933,-0.38350812956044256,0.41383649515041016,-0.8903653196664507,-0.11575640958153012,-0.5846589026189172
42180,4.067,-0.14072504686203682,0.8004159797616868,0.10878548646900255,0.5724477604651093,21.395272258518396,-1.5332453297848077,12.63719466057728,2.3324211784250597,0.25826677134581527,-0.14036032942125623,-0.8827923443198101,-0.12725486160093435,-0.5852385954781358
42181,4.075,-0.14641192101893735,0.7971517021284581,0.11509576428868559,0.5743393406515436,25.06522787455295,-6.276028956074448,9.525005032174604,2.0141599597271203,0.7675021178198105,-0.5822068799168085,-0.8907553237777708,-0.14031970207952846,-0.5976140663187421
42184,4.100,-0.1577362326348167,0.7618557123062272,0.0915424970981991,0.6215425373742114,47.2549583510152,33.489786678371814,92.56242871893255,-0.36962903519730633,4.9802942772113745,1.2887237089839392,-0.8163964658840849,-0.10516198522727062,-0.6801585207214058
42187,4.125,-0.07073396618165534,0.746540378294304,0.018623210613337837,0.6613073004518107,15.792909681068611,14.898843668154834,5.070136464513841,-9.05341198967781,3.475992167850675,-0.33137289221286564,-0.7586971542331283,0.04941614205186209,-0.7551234683037112
42190,4.150,-0.08706619990550887,0.7276298318083996,0.047915399230911454,0.6787329513240363,15.646604964960398,-56.08656051437739,-8.548206473404015,2.6012509379845627,1.9206784154294323,-0.9816624283012345,-0.7204826665469357,-0.008731286202464205,-0.7719224083841794
42191,4.158,-0.09685424017411451,0.7256554975637257,0.05262913763669968,0.6791712073457281,14.569604790587839,-18.33556907212171,4.105561642238464,2.4936550968940416,0.3650041069035893,0.7141015506028944,-0.7271706124417423,-0.016904621236714032,-0.7592745970684637
42192,4.167,-0.09295044024716277,0.7278892910936307,0.045436203466428474,0.6778443383134717,11.407243607283206,4.220493186565232,9.811217628117836,-1.8791652219139965,-0.49669890157821484,0.6682513110958247,-0.7288392901909929,-0.002650869674600425,-0.7645936510202472
42193,4.175,-0.10513637662306992,0.7272190625506746,0.05271065500968696,0.6762546592977674,4.373627179939245,17.45977309046641,-6.918152221155425,3.333323666166311,-0.23613833668192233,0.6936751830237601,-0.7359490886022081,-0.028668745946435526,-0.7607032589947625
42194,4.183,-0.12197064287230344,0.7267934717030893,0.0630149539302091,0.6729959341246139,6.814906252239791,23.776302491916965,-6.512873018655655,4.673510779116435,-0.5745542861562212,0.9516184415220598,-0.7367588850831479,-0.04326630803470802,-0.7505077615870183
42195,4.192,-0.13090569557526358,0.7285820141858469,0.06726872679816027,0.6689595397823442,11.37152799680761,30.726725520416736,-2.807228594212393,2.2486214962111677,-1.0225241002060592,0.7891874869218559,-0.7378191264676327,-0.05295433754166008,-0.73948226173676
42196,4.200,-0.13139059139169437,0.7325911010307548,0.06648269752131676,0.6645501050444402,16.900438230664655,24.34877250824916,-2.802003134198824,-0.08982253682757076,-1.3931811924504671,0.3711625216282789,-0.7517657874166218,-0.059183816862188855,-0.7354958779651003
42202,4.250,-0.1165542605866156,0.7406730606874457,0.11055945938710186,0.6523765227619948,29.75836657453777,-21.856697649961937,-3.955681765541086,0.7166296926336412,-0.7972094688625493,-1.6378414534498336,-0.7641384506054646,-0.12792928097085338,-0.6815316314006369
42203,4.258,-0.11963710928427293,0.7421814765422631,0.11612232431470536,0.6491295893389856,28.981728197678695,-25.61901859699138,-7.568033410216042,1.4093881806395212,-0.9245605403813865,-0.43255081723152694,-0.7708075537643213,-0.13471054047571193,-0.6713673664124991
42204,4.267,-0.12686015697130207,0.7424805814116153,0.1212457399767561,0.646473941731123,23.004894680123414,-4.225828116610383,-8.32832356133485,2.1555991247512747,-0.47276233796898404,0.25998844418857786,-0.7701167693446306,-0.14676077267944596,-0.6658766084676425
42205,4.275,-0.14183908415196786,0.7407710355533674,0.1312802764415241,0.6433548290869976,16.8932345448645,13.184370422510387,-2.664680859488501,4.357803614187401,-0.1909479045140606,0.5315910373646268,-0.7741120223300959,-0.17230380276943338,-0.6541604849264244
42206,4.283,-0.15864013034398938,0.7391630302587677,0.14444492387941488,0.6384410604813798,10.93436861478201,25.112002613055537,0.2731721131455812,5.235476159326497,-0.5528933789918434,0.30732759396442233,-0.7710365487112887,-0.19732270035780455,-0.6411849363723648
42207,4.292,-0.16898103750751467,0.738526764072908,0.15610303321300387,0.6337629452189388,5.735027674636166,30.741658539823202,-0.4398814974369926,3.79305533950511,-0.8214376246352004,-0.388620307096278,-0.7787963371349532,-0.21733709410425797,-0.6159825489841234
42208,4.300,-0.17268516662845046,0.7382042118771261,0.167788101692758,0.6301440531527027,3.453378428268812,18.620478861442884,-0.3419704964694769,2.5752936963291497,-0.8851906908476008,-1.4265252180370018,-0.7822868241319498,-0.24367714226519707,-0.6064373262007358
42213,4.342,-0.19472751346867068,0.7110212398156138,0.270939800790223,0.6189681868861521,12.290841148084116,-0.6287920485757823,-7.209918867951171,4.202369000802095,-0.1608805425189016,-3.165340058671924,-0.7306302625870554,-0.4199310230105704,-0.5285364813583905
42216,4.367,-0.2071366765407346,0.6860861299690671,0.32601600177096207,0.616517466163777,13.687160674798996,8.062637803138083,-5.960602340094267,3.8518765722830106,0.5859144454369318,-3.038736801793887,-0.6870591661358171,-0.5130017546096296,-0.4790466371059326
42219,4.392,-0.21868416845434846,0.6562603311129263,0.3635724365333627,0.6239508760056173,0.005023528751796252,13.060592241221196,-2.955725020922415,2.770850813800956,1.6239630978370425,-2.3718114428540775,-0.628713198167376,-0.5775012710066565,-0.44616572278773103
42220,4.400,-0.224567137432324,0.6406124331356502,0.3723224422109198,0.6328991312393867,-3.0909680200532534,9.148011102727986,4.191557552182771,2.261817839182235,3.8596794633325544,-2.230950154014214,-0.5899454706351785,-0.5917189581736787,-0.4393449919160124
42225,4.442,-0.20946413628914928,0.5325178746103415,0.3583060390400229,0.737676264506711,12.034509257540426,35.24539345357756,32.45650104769054,-1.6240442692950934,6.500751040770706,-2.9050550305565057,-0.3794404771299457,-0.6135942949491298,-0.5746164555311145
42226,4.450,-0.20900859522063436,0.5134377458877498,0.36589100091650506,0.7475432185967055,2.7671107109613313,-6.717932964856976,30.034284688218996,1.367637994837125,4.248346651903008,-3.03242490649905,-0.34298801436535975,-0.61926598503967,-0.5844309269904888
42230,4.483,-0.19881692231405407,0.4841063113918747,0.3615003538515347,0.7716413706102959,6.098306635112744,-9.920680887325808,12.719702429183512,-0.6787110267183515,1.9270481352405748,-1.2138984170191742,-0.27988513324155917,-0.6290009033208105,-0.5992966952794061
42231,4.492,-0.19837297515904279,0.4751022028470192,0.3554486860617402,0.7801168445517904,5.7332321511799895,-3.08459892537892,13.695462807583183,-1.4958783846352068,2.849948100076824,-0.4517709231330035,-0.2684865978508265,-0.6135366020381225,-0.6214059338243371
