packet_counter,timestamp_s,q_w,q_x,q_y,q_z,acc_x,acc_y,acc_z,gyr_x,gyr_y,gyr_z,mag_x,mag_y,mag_z
2002,0.000,0.5696420257423335,-0.32208233950730053,0.09774838371837516,-0.7498107645040317,-0.14989014541441978,-0.09594769432460988,9.846500482051354,-0.0018640686868317004,0.0032254829666240586,0.002609023904401945,0.08309434937517388,0.5689207946476655,-0.2181890292400599
2004,0.017,0.5696352231231006,-0.32208891033501114,0.097754345853998,-0.749812332709564,-0.17794913167581788,-0.07368250750701817,9.910446101415143,-0.0023336004173607643,0.002870671526001286,0.000836278653589489,0.0825702616883547,0.5749730560852918,-0.21488775847003688
2005,0.025,0.5696366100449535,-0.32210337018586355,0.09774046980268354,-0.7498068764516327,-0.1605499438898912,-0.08282802957086581,9.884297394076002,-0.000902116240229867,-0.0008699166305674861,0.004483044896818444,0.09405474363698982,0.5699193325947879,-0.2078257822748199
2006,0.033,0.5696403690794852,-0.32208506904132184,0.09774290883684476,-0.7498115643198282,-0.16083052295499517,-0.08284485634210462,9.884292693285643,0.00041640976209838317,0.007642829152716518,0.0002664105043686885,0.09155681647505529,0.5692015888324078,-0.207357864307699
2007,0.042,0.5696624825328502,-0.3220809802264686,0.09774969188649699,-0.7497956360949048,-0.17770272407158355,-0.0649245698711987,9.85073594338812,-0.0037285228451321233,0.006451482548539798,0.00521862756108047,0.09601777150412388,0.5724560651599239,-0.20555661668309685
2008,0.050,0.5696618082989174,-0.32209179134021604,0.09774059268811792,-0.7497926904537241,-0.15159786650839946,-0.09678266121119206,9.846466165841758,-0.0011519650636907406,0.0001940866901150606,0.0020074108530159225,0.0858385627432525,0.570117764271241,-0.20514264587509928
2009,0.058,0.5696783196458097,-0.3220890230719823,0.09774171932424511,-0.7497811878445628,-0.163174151670039,-0.05588044784407981,9.874061372366844,-0.0023271294086312172,0.005193669180292192,0.00568720026552375,0.09016587716568228,0.5713069578279484,-0.21066211251494987
2010,0.067,0.5696832857311649,-0.3220928117517351,0.09773224423972135,-0.7497770221954478,-0.18733005858142118,-0.07918749995265066,9.898737686874284,-0.00046287554367319985,0.0019678370112878895,0.003077798706995919,0.08935658824651979,0.5703788168162153,-0.2111834042287929
2011,0.075,0.5697014010340575,-0.32208454478403625,0.09771365905134705,-0.749769231501193,-0.1637289855487453,-0.0559070187264804,9.874052037207157,0.002316839372741768,0.0042571531801351425,0.005686885060491069,0.08376051537816784,0.5711472158742167,-0.21198194501492806
2012,0.083,0.5697007269481222,-0.3220953551756708,0.09770456028455667,-0.7497662854440983,-0.15256403981110472,-0.09689515282137949,9.846450136715447,-0.001152103262172398,0.00019425266847474418,0.00200747728320772,0.08940511805958451,0.5740062253508373,-0.2132579434786947
2013,0.092,0.5696948851023994,-0.3221096412935061,0.09771198084702719,-0.7497636198648769,-0.18782314685277898,-0.07928762094942958,9.898727542143828,-0.004644063737941598,0.0009369518288410431,5.376207378429525e-07,0.08814656293919251,0.5685464659385489,-0.20924397187256108
2014,0.100,0.5696862709273808,-0.32210888476981875,0.09769948142819589,-0.7497721189787339,-0.15397071197950027,-0.06981540052172336,9.836235470873671,0.0018412973423470864,0.0015794596650524984,-0.0009370399984236686,0.08687416089291529,0.5674107206814839,-0.22045371292774174
2015,0.108,0.5697114150068486,-0.322112392049549,0.0977144934760073,-0.7497495503591449,-0.17447704257734675,-0.04280680337361772,9.911847557350063,-0.006971492778665126,0.006131197842702939,0.005688319197585488,0.09090511232252357,0.5720233050883179,-0.20485268134363202
2016,0.117,0.5697095921138611,-0.32211390783406235,0.09770350602316344,-0.7497517161995093,-0.17847917582490944,-0.09347282497910953,9.860899320829839,0.0006891540986446659,0.0017736977423138494,0.001070569644838568,0.0802946103339043,0.5728050662212301,-0.20692315277131937
2017,0.125,0.5697074636453057,-0.3221153297986594,0.09770573313130045,-0.7497524323993947,-0.16366199350006155,-0.08414683725488048,9.884235216253746,-0.0018644520740626284,0.0032263103303709884,0.0026099127206809557,0.08304593211306721,0.572618600117677,-0.2052598226625773
2018,0.133,0.569714076030558,-0.3221138634913889,0.09771979500233494,-0.7497462051814603,-0.15518892425154657,-0.07058645891181199,9.836210824587758,-0.004667210322507237,0.005743085033522198,0.001673616622671619,0.09680842603034621,0.5723096852811028,-0.2142985983832504
2019,0.142,0.5697208247996101,-0.3221142411752674,0.09772636545462958,-0.7497400582313595,-0.1644554688998769,-0.0847370245414021,9.88421700457422,-0.0032659288242221913,0.004484822378826281,0.00214194628073616,0.08690719753977585,0.5710100085642742,-0.20953367916274906
2020,0.150,0.569720151151411,-0.3221250515904941,0.09771726750912535,-0.7497371113532965,-0.16590120426536756,-0.057482802321353985,9.87400673049468,-0.0011523755693901429,0.00019430609775933935,0.0020075613058278567,0.08386961664402413,0.5783499811458293,-0.2063381169465631
2021,0.158,0.5697308353441569,-0.3221217409695588,0.09772033513320649,-0.7497300149748868,-0.16487430377706053,-0.08505419389652279,9.884207302922563,-0.002327911021907653,0.005194564464959115,0.005688657945091054,0.08870847473992717,0.5714920274294908,-0.2075856481249091
2022,0.167,0.5697487845801181,-0.3221190275456494,0.09771984461283982,-0.7497176045227738,-0.16655492605373134,-0.057804331751125045,9.873993848962016,-0.002328005836366748,0.005194739770916062,0.005688868627776416,0.0795931596208143,0.5717277523266543,-0.20505945721669047
2023,0.175,0.5697330237751752,-0.3221268855176821,0.09771320648724749,-0.7497270706894975,-0.16552217803215113,-0.08533007284316514,9.884194096028807,-1.6612687787909142e-15,6.504603171191004e-15,-4.098690787809888e-15,0.09280815063340496,0.5687195699671912,-0.2108434499851949
2024,0.183,0.5697453309351241,-0.3221311939547951,0.09771309279618394,-0.7497158816879158,-0.16566471840685362,-0.08545114756687167,9.884190662610681,-0.00301719614720946,0.003421163070093265,0.004618108058950788,0.08958851851103362,0.575413592223766,-0.19878304910715425
2025,0.192,0.5697545000905377,-0.3221260974787922,0.0977130261122657,-0.7497111120142539,-0.1559125098659517,-0.09922159750720806,9.846374517038015,-0.0011755924173897714,0.005000548865761392,0.0036815852719866856,0.09211148738736988,0.5730407911183937,-0.21494019367788356
2026,0.200,0.5697532260875768,-0.3221258606462401,0.0977098851391029,-0.7497125913387218,-0.1513270047275608,-0.0763284612734909,9.90752273808618,-0.0007121351290070165,0.00303240271854145,0.0006029483764440377,0.08451884098927832,0.5679047051196006,-0.214818167369863
2027,0.208,0.5697647264454082,-0.32213760765203475,0.0977081998621931,-0.7496990235517874,-0.18280503788204225,-0.06780108305332133,9.8506231982296,-0.003706507279001264,0.0016476747338730953,0.003547232360758649,0.07963384026300778,0.5645981769944524,-0.20660685776348867
2028,0.217,0.569774738953497,-0.3221233265459007,0.0977043068634574,-0.7496980577311171,-0.15186318288644837,-0.07662978839489423,9.907512208965008,0.0006660477950907182,0.006579973753635665,0.0027453927227729185,0.09325794577675721,0.5661842339040659,-0.21971944070956853
2029,0.225,0.5697724317962173,-0.3221415126249958,0.09769389976120942,-0.7496933531505741,-0.18210815764239371,-0.09540135672861437,9.860814499928319,-0.0018417920156412455,-0.0015792217418220146,0.000936488302753947,0.09091038906153708,0.5609960961076408,-0.21244031578707512
2030,0.233,0.5697903840654787,-0.32213879834746134,0.09769341165528782,-0.7496809388966209,-0.1684825249271277,-0.05877076722081944,9.873955440917367,-0.002328486087401699,0.005195404384741574,0.00568979434569521,0.08758059114693806,0.5768997350441476,-0.2005986345174302
2031,0.242,0.5697993987043294,-0.3221244800258268,0.09769072116209866,-0.7496805903870697,-0.16896905667690448,-0.05883323327566262,9.87394675540921,0.0006660555737158639,0.006580152671098724,0.0027458115434622946,0.09312325392799871,0.5759743870364357,-0.21510235381640247
2032,0.250,0.5698043684035374,-0.32212826739552625,0.09768124913122836,-0.7496764199714204,-0.168082937892105,-0.08625598306780854,9.884142844700524,-0.0004637858058786838,0.0019684296138105617,0.003079069729789672,0.08104998015003059,0.5738077936743844,-0.20759435469171228
2033,0.258,0.5698136582065173,-0.32213412339420416,0.09767469394537122,-0.7496676968024114,-0.14313111780138502,-0.09057846199645363,9.869680750786866,-0.0016166759566111112,0.0021631411525501075,0.005086870207536522,0.08841371831726039,0.5699087635238986,-0.2119699033688859
2036,0.283,0.569830216170957,-0.32214022568469786,0.09766981603503856,-0.7496531242982014,-0.17294228733206443,-0.06379940750624508,9.889930066298867,-0.0018649619928739329,0.00322748328910059,0.0026111532779416135,0.08857969448113706,0.5727917041463194,-0.20729860210082707
2037,0.292,0.5698461506643164,-0.32212998666194653,0.09766075992149092,-0.749646591560178,-0.14425311195754204,-0.09105197084051725,9.869660059461244,0.0009141360590028679,0.005516262435161194,0.00522254350565871,0.08986337083885047,0.5708488701085318,-0.21017725442589194
2038,0.300,0.5698658024441082,-0.32213481184784737,0.09767001191620152,-0.7496283739112161,-0.1860584954569334,-0.0689112061121119,9.85055458162019,-0.0055722545710674195,0.004876489021981279,0.00615892918763667,0.09241225466671114,0.5780157386614444,-0.21054400467305961
2039,0.308,0.569860284435363,-0.3221417402634209,0.09766737213237647,-0.7496299352507593,-0.14493930220104898,-0.09152000906246348,9.869645676600642,-0.0014010121317219871,0.0012591263648741417,-0.00046807352923647626,0.08699884149002135,0.5680510849984216,-0.2077235656407692
2041,0.325,0.5698786674032628,-0.32214632558110057,0.0976734840253562,-0.7496131935015724,-0.16600443601411907,-0.08066790446162046,9.86008783513139,-0.0031422286904716286,0.003954879403804067,0.0033815052600807563,0.08527426375982063,0.5737092760871633,-0.211690208800878
2042,0.333,0.569874576728795,-0.32214587084230945,0.09767211898781766,-0.7496166766220296,-0.1708993374998958,-0.0878693501958971,9.88408033860311,-0.000711958045244249,0.0030330668804188984,0.0006038328515299273,0.08553120271069782,0.564016244040004,-0.20900920172575135
2043,0.342,0.5698851937167929,-0.3221426352398821,0.0976622729664447,-0.7496112785851778,-0.14728017568230667,-0.0646953800581441,9.8594257851688,0.00022476046118442142,0.0037425978663017676,0.004151684698383571,0.09253206827384255,0.5775696165149279,-0.20867796402344665
2044,0.350,0.5698842532462192,-0.3221534517157434,0.09765390283864914,-0.7496084355915504,-0.17134454301127938,-0.08791986938196275,9.884072181323027,-0.0011532993649531753,0.00019493274745643164,0.0020078965064557336,0.09583977362689819,0.562789757262586,-0.2102517854728499
2045,0.358,0.5698920206585167,-0.32216127134786815,0.0976698627817364,-0.7495970904008871,-0.17152591184777705,-0.08823215242625593,9.884066254489104,-0.006509503476947691,0.004167839010886678,0.002611810508890665,0.0880686863919125,0.5714934239315015,-0.2126549186179038
2046,0.367,0.5699044946186748,-0.32216573059131415,0.09765778306498889,-0.7495872640679201,-0.14298263717917148,-0.04237735624644904,9.920576346570565,-0.00046434563477115433,0.0019687833016964027,0.003079974074807277,0.09114467329811848,0.5708861633292425,-0.2114324532314338
2047,0.375,0.5699088720952725,-0.322158468342154,0.0976542665077187,-0.7495875152478004,-0.17328633556079776,-0.06109388975664334,9.873858201883591,-2.289876253818781e-05,0.004807084955863572,0.001676149948476031,0.0850933630420268,0.5730900499120043,-0.21042119666671102
2049,0.392,0.5699128558898646,-0.32216025009506855,0.09765001770253882,-0.7495842741098798,-0.1674596746023922,-0.09543416808910749,9.865142102131426,-0.001288651669264377,0.003130790823090178,0.001608112826246576,0.08229408670421207,0.5696624695558458,-0.21380790078939507
2050,0.400,0.5699210345167799,-0.32215497988633335,0.09764901066796734,-0.7495804520298851,-0.19933823051186794,-0.05709802656990384,9.88828800940436,-0.001176469410509153,0.005002260302265426,0.0036843704839363265,0.09357728785249671,0.5697103318474456,-0.2131154851289507
2051,0.408,0.5699203619697074,-0.32216578781345745,0.0976399160458552,-0.7495775029771179,-0.1330620801028738,-0.08377851269638328,9.89294322702913,-0.0011535480026784093,0.00019504897305986743,0.0020079638541288473,0.08856471033067792,0.5725320481033558,-0.20841379553680398
2052,0.417,0.5699355279225201,-0.3221593650512672,0.09764493895381847,-0.7495680779076359,-0.17469038948166019,-0.06158817839894942,9.873830390746344,-0.0025773902117629836,0.006261917923871299,0.00321659877818545,0.08898582680139928,0.5677154460120262,-0.20323594693793937
2053,0.425,0.569941097022617,-0.3221741996678178,0.09762951593133433,-0.7495594763673331,-0.17369458389655487,-0.08916478229758018,9.884020010836744,-0.0009063901612035922,-0.0008693721653986734,0.0044839675524326605,0.08586852440204491,0.5729155493813513,-0.20616860535197018
2054,0.433,0.5699278165110686,-0.3221694819141571,0.0976359518320493,-0.7495707637040947,-0.17504772225406184,-0.06180073627622434,9.873822733327383,-0.0009590796356539798,0.004097961812855764,-0.0018715800356371873,0.08494359441822887,0.5684599139242276,-0.20800493149062826
2055,0.442,0.5699469238289023,-0.32217605888938067,0.09763736517800736,-0.7495532242726823,-0.149016767199419,-0.09369807877913573,9.86956451841424,-0.004172917387163946,0.003618889169633613,0.006628506501499032,0.09359595527347518,0.5824221153249575,-0.20982209027205043
2056,0.450,0.5699554314568132,-0.3221708640498151,0.09763719774621273,-0.7495490098229342,-0.14937534445725953,-0.09391165897192393,9.86955706781279,-0.0011766233708718045,0.005002645587824807,0.0036850668740196868,0.09346886774988546,0.5721246156795604,-0.2149589054824035
2057,0.458,0.5699541649123635,-0.3221706223485744,0.09763405696880063,-0.7495504859009806,-0.16104862088014177,-0.052952084062467715,9.897164077405664,-0.0007118525789404113,0.003033623865327035,0.0006045871831203739,0.09034077366892754,0.5662560273414659,-0.2086867120611391
2058,0.467,0.5699712401933613,-0.32216796133255876,0.0976220476098163,-0.7495402096377033,-0.16742472074035203,-0.04846749351808975,9.825798214229206,0.00022405852322815198,0.003743065852118184,0.004153184605570811,0.09265120071772896,0.5675064452646837,-0.21061233108874589
2059,0.475,0.569967122749566,-0.32217877171680054,0.09764471465014728,-0.7495357414696958,-0.17541830278218634,-0.09004678519772444,9.883981574976605,-0.007445889382084776,0.003460376408322487,-0.0009362568396871283,0.09624119117830794,0.5733110162322466,-0.20891210182801265
2060,0.483,0.569984402749139,-0.3221761477915974,0.09763297484062136,-0.7495252581738956,-0.15301057597188986,-0.039713085747550524,9.849149489083539,0.0002239272694543537,0.0037430427993733937,0.004153430041285289,0.09003349961882721,0.5765936132115946,-0.21472398597950956
2061,0.492,0.5699763895375015,-0.3221864369883371,0.09761451586107397,-0.7495293333044162,-0.16447904074450778,-0.13130533759326832,9.856358468809876,0.0014007616537391437,-0.001259824012900347,0.0004679099135569934,0.09131597915542469,0.5675437384853943,-0.21054962591743995
2062,0.500,0.5699993787726022,-0.32218055555177105,0.09762852318875898,-0.7495125544533473,-0.16108331952062227,-0.08108097606948513,9.907331163574442,-0.0051323176569191605,0.007717946467400464,0.004757957062305672,0.08143811292830747,0.5701937472146729,-0.20953737936846226
2063,0.508,0.5700026616816287,-0.32217680090885764,0.09760931432692455,-0.7495141735742035,-0.15257998917183993,-0.06732571389947983,9.859327581035748,0.0027785178785513062,0.0022880020173207125,0.002613509732887808,0.09045820673548764,0.5700685054776303,-0.208453564240828
2064,0.517,0.5699987529776492,-0.3221855395327629,0.09761001964159624,-0.7495132979377184,-0.14786125624098767,-0.04438106427622394,9.920496071041995,-0.002554731713768368,0.001455223991380226,0.0015401920712043381,0.08604519962294488,0.5727065486340089,-0.2117877842003129
2065,0.525,0.5700099289308823,-0.32218054779590405,0.09760802343201896,-0.7495072043041591,-0.18705759954993434,-0.07705754587514475,9.921754056728625,-0.0011769822233931256,0.005003204013831031,0.003685957855847349,0.08900206736951631,0.5776055132336277,-0.20211825905089412
2066,0.533,0.5700157815603542,-0.3221843258913022,0.09761135997921866,-0.7495006946795404,-0.1659368723021451,-0.13185082639493653,9.8563267516809,-0.0030200012571192348,0.0034246895287889734,0.004621308179016843,0.07981357718772403,0.5697476250681562,-0.20679273606761744
2067,0.542,0.5700190646570108,-0.3221805713163024,0.09759215141141447,-0.749502313123008,-0.154794107746511,-0.04019522327427332,9.849119663783721,0.002778431688387012,0.0022879483718705276,0.002613849383854967,0.09266259422224911,0.569474606950282,-0.21058971079258582
2068,0.550,0.570016237470708,-0.3221876027513987,0.09760051225769936,-0.7495003520079757,-0.17892881273514363,-0.06342644549830949,9.873742855380288,-0.003955464855145394,0.0027154981883285747,0.001072338739139065,0.08847065281182277,0.5681123093649322,-0.20588692333098924
2069,0.558,0.5700206225616542,-0.32218033753919634,0.09759699709594881,-0.7495005978085726,-0.1391016824300498,-0.05850741698826097,9.882668785332957,-2.2925110964619012e-05,0.00480806657351014,0.0016782063453277913,0.07640205394995155,0.5640190370440253,-0.21519403078119745
2070,0.567,0.5700240225913976,-0.32220237142159136,0.09759286298860069,-0.7494890783812083,-0.15304908274953347,-0.09545264727892974,9.869485998445235,-0.004151544128084235,-0.0011876503370122,0.004951443763521676,0.09522102659830733,0.5735228099836103,-0.21365111462846748
2072,0.583,0.5700350792354841,-0.3222064297932961,0.09758962245822501,-0.7494793463660719,-0.17900757976961063,-0.07779251674691649,9.878820482898913,-0.001865990180894125,0.0032296210351269302,0.00261351088872949,0.08434516787565266,0.5709487841977636,-0.2108211948155091
2073,0.592,0.5700489392108721,-0.32220167957674717,0.09758716555235959,-0.7494711666915138,-0.16267848506031254,-0.10981788821882664,9.917462397855953,-0.0011771706680571824,0.005003716842649953,0.0036868401439871202,0.07738748250576534,0.57408360479628,-0.21920753686012492
2074,0.600,0.5700544684293187,-0.3222037083247725,0.09758554563328864,-0.7494662998754416,-0.1804237510503117,-0.06438732836353687,9.87370943187425,-0.0018660817996850076,0.003229797198292171,0.002613680450373736,0.08333404282810455,0.5682734478206746,-0.20414509475380652
2075,0.608,0.5700513149352282,-0.3222067682403112,0.09757928649868983,-0.7494681979158012,-0.15550217578663655,-0.06873742986702161,9.859272183530992,-0.00046554072928955417,0.001969576786548808,0.0030815784052416577,0.08695335345439519,0.5766175443573948,-0.20998476489312787
2076,0.617,0.5700653294147017,-0.3222186082365699,0.09758893043122335,-0.7494511921150607,-0.19584998933886347,-0.07408049319081754,9.85032725051911,-0.0062644001862772695,0.0031074304910201425,0.005089225665433638,0.08758886999322583,0.5687076043942912,-0.2098084752548621
2077,0.625,0.5700654953814576,-0.3222035941706029,0.09757718766149422,-0.749459049799996,-0.14105396845694315,-0.05979941417263269,9.882633380442748,0.003221073887133108,0.005126411820157006,0.0012119857698352913,0.08315850483177856,0.5730661187662043,-0.212634435130801
2078,0.633,0.5700710638609553,-0.322218429274858,0.09756177074248736,-0.7494504432406944,-0.18136738686716788,-0.06477069511299355,9.873689635798874,-0.0009085107743449451,-0.0008690639081673618,0.004484446375754068,0.090108367416707,0.5730900499120043,-0.21294717928900275
2079,0.642,0.5700825551901293,-0.322222647248804,0.09756221291786774,-0.7494398311261784,-0.15394552733953912,-0.12407241327031215,9.87962792188528,-0.0030206619830348194,0.003425821357303665,0.004622336119681082,0.08578580079116796,0.5679406018383004,-0.21067461968819814
2080,0.650,0.570081844393187,-0.32222064573845133,0.09756691906510011,-0.749440619700655,-0.1716544010886725,-0.07872229125394861,9.835875506826703,-0.002112072272690702,0.004294927561008829,0.00013791767942225057,0.08557381429166828,0.5784126020143504,-0.21001004645539387
2081,0.658,0.5700831961495607,-0.32222231474954716,0.09756738131090115,-0.7494388136795951,-0.1971021899981844,-0.07462227977469094,9.850298183459412,-0.0018662257983241266,0.0032302241787997878,0.0026141403393267868,0.09317659777662206,0.5758864385201039,-0.2101119469183226
2082,0.667,0.5700887261642262,-0.322224342338054,0.09756576266751517,-0.7494339460288446,-0.18117797788468723,-0.09288785169771539,9.883851381719628,-0.0018662562629511638,0.003230280480344985,0.0026142079857006542,0.08903793397615115,0.5741912949523799,-0.21073060574567382
2083,0.675,0.5701009092798418,-0.32221944701193417,0.09756408319738406,-0.749427001698948,-0.13243367587297777,-0.07408838049125473,9.844803703574474,-0.0011774543404547391,0.005004398740961018,0.0036879677542853784,0.09520731214975789,0.5783366190709186,-0.20825112091572656
2084,0.683,0.570097954863235,-0.3222116631205901,0.09755119920776782,-0.7494342729972704,-0.15672558598464112,-0.09721210730821406,9.869411127309963,0.0025323761793900677,0.003352354644515629,0.0001390963648479625,0.09169460969779422,0.5741286740838587,-0.20925518286492276
2085,0.692,0.5701066202976289,-0.3222341878723529,0.09754598020058748,-0.7494186756451744,-0.18314733025804603,-0.0655687480668771,9.873651512992355,-0.0041530799407403654,-0.0011866533499109715,0.004951392026652274,0.09195997307395554,0.5752059879784341,-0.21089922775674366
2086,0.700,0.57011211405522,-0.32222340673420774,0.09755815946861617,-0.7494175465527783,-0.15826172484741718,-0.0701144004652995,9.859218578547669,-0.002823553839382812,0.0073300304703404,0.0007442765591526227,0.09556960285730415,0.5631493273947815,-0.21241634038018586
2087,0.708,0.570118678889927,-0.32222565694851474,0.09754434658407238,-0.749413382876493,-0.15863625404568313,-0.0702008952003432,9.85921194228223,0.0006888014570448427,0.0017740768343822203,0.0010738562235737545,0.08658791506057831,0.5700072811111198,-0.20908212790516412
2088,0.717,0.5701236591653186,-0.3222294406640284,0.09753488182120636,-0.7494091990744568,-0.14260758481730196,-0.08830919220685157,9.89277082593716,-0.0004660523240746313,0.0019699334756783076,0.0030822799571327626,0.0857288729387315,0.5674585829730838,-0.21350125337727005
2090,0.733,0.5701347806579828,-0.3222316903018024,0.09753988767706893,-0.749399119269073,-0.1522883880717176,-0.05202998864848309,9.865799353400469,-0.002566668670026321,0.00386105851596735,0.002380708801968839,0.08692160643582214,0.5712563025323272,-0.20462057246292822
2091,0.742,0.5701208384741602,-0.32223789791338453,0.09754088047198976,-0.7494069277252733,-0.18351680735275597,-0.09386023539097678,9.883799045932163,-0.0014003619366224494,0.0012607713689641652,-0.0004677519528551081,0.09295792589932879,0.5710712329307848,-0.21000336881245277
2092,0.750,0.5701461598467052,-0.3222356921162951,0.09754978305243613,-0.7493874531674588,-0.1700381268339225,-0.05734770009053376,9.896989222289186,-0.004888165353003116,0.006657530356734116,0.0072380316491845315,0.08598891326358918,0.5724827893097453,-0.20810047796620113
2093,0.758,0.5701485353533083,-0.32222087483354767,0.09753729976983501,-0.7493936419596778,-0.18433416420814655,-0.09417619405670064,9.883780831340648,0.00322132685398774,0.005126402934343545,0.001213978036250558,0.08573072453718006,0.5702669371540834,-0.2075276331435712
2094,0.767,0.570155208383506,-0.3222321958696034,0.09753758119684092,-0.7493836604520306,-0.16065576204162293,-0.07101294889182225,9.859173425995834,-0.003710509302702771,0.0016528262427346306,0.0035491693106391143,0.09118176329437296,0.565465093639675,-0.2140724269180489
2095,0.775,0.5701567728934355,-0.3222303909225933,0.0975416927454509,-0.7493827110802386,-0.16987039811034615,-0.08511031024043718,9.907150599061811,-0.0021118727436063036,0.004295970581937394,0.00013877512988394396,0.08794286857023248,0.5662693894163764,-0.21127654667953907
2096,0.783,0.5701623067647285,-0.3222324169471198,0.0975400766753511,-0.7493778398480353,-0.16121125900466457,-0.07141125484865472,9.859161481486405,-0.0018667533868320257,0.003231065675032469,0.0026150359827734056,0.08344423500624464,0.5729795667518831,-0.213152600051332
2097,0.792,0.5701728672799453,-0.3222273520665686,0.09753844153411613,-0.7493721955217113,-0.14656141553855495,-0.062214038365457705,9.882538331991588,-0.0011780808936339786,0.005005282459952992,0.0036894370818281947,0.09383969543367383,0.5750328839497919,-0.21259450958622955
2098,0.800,0.5701727486178366,-0.32223639938638904,0.09753719980388018,-0.7493685570521992,-0.14564886541262662,-0.08981071809710785,9.892712999809861,-0.002555527135089699,0.001457049718030646,0.0015407918955945119,0.08119912056499956,0.573622724072842,-0.21001186709332914
2099,0.808,0.5701886988213843,-0.3222334980431502,0.09753796829298747,-0.7493575683320535,-0.16209421178408936,-0.07187790221124622,9.859143613901223,-0.00233343679023056,0.005201464541015064,0.00569821151191578,0.08624225492640142,0.5667767359294036,-0.20976839037971623
2100,0.817,0.5701857495043219,-0.322225712966065,0.09752508268976535,-0.7493648371868405,-0.18759211425607547,-0.06759817565338884,9.873554379784016,0.002532721595393439,0.003352251954134863,0.000140442450538387,0.08962560186516212,0.5722709955583816,-0.20467936914259408
2101,0.825,0.5701904679794974,-0.322247889220521,0.09752112485504445,-0.7493522258092302,-0.1625378653877989,-0.0719289529278467,9.859135937072809,-0.0041547639195465185,-0.0011858459176625233,0.004951101036065533,0.0851976106021602,0.5746493826717964,-0.20912878253805597
2102,0.833,0.5701959692507442,-0.32223710344521195,0.0975333059519306,-0.749351092641848,-0.16279204959546117,-0.07221174980693176,9.8591296773131,-0.002823246264049197,0.007331792419928487,0.0007460804465713865,0.08749369499358325,0.5758984040930037,-0.205655655078456
2103,0.842,0.5701935471464116,-0.3222402613825059,0.09752757494324044,-0.7493523235851196,-0.15717041056829364,-0.076894819936779,9.930488151002036,-0.0004667629991688398,0.0019703073572632005,0.0030831703275448373,0.09020423686384643,0.570959353268653,-0.20678689905284706
2104,0.850,0.5701985293883347,-0.3222440445215581,0.09751811300044784,-0.7493481370435242,-0.17832644498750794,-0.08169200248128296,9.835732586014727,-0.00046678299610403406,0.001970344304724717,0.003083214712965322,0.08656686045690261,0.5638325709404723,-0.21726476194019104
2105,0.858,0.570214593124158,-0.3222486603932687,0.0975167035876863,-0.7493341118515736,-0.18988249705523266,-0.04079971383503821,9.863351240616682,-0.0030224804496538737,0.003427825178430094,0.004624205941315491,0.08250374561755654,0.5682509131768853,-0.2123062063621232
2106,0.867,0.5702139218841757,-0.3222594647407515,0.09750761555653288,-0.749331158822954,-0.16254147911814765,-0.1001310936223248,9.869287873266765,-0.0011555258886108944,0.00019622001629237954,0.0020086170827806997,0.09423565763903552,0.5659816127215809,-0.20258210171133723
2107,0.875,0.5702122643306611,-0.32225920182492684,0.09750525032065999,-0.749332841003227,-0.13987357241775683,-0.049581232944721595,9.834518090504368,-0.0007114540671220408,0.00303548112023879,0.0006070974634280545,0.08960460021590248,0.5708981289021424,-0.209062842688243
2109,0.892,0.5702289911160914,-0.3222562290217654,0.09750164837423271,-0.7493218594914366,-0.16822226989292913,-0.09356516216799293,9.888176202593224,-0.0015227210480093232,0.004118898192115555,0.0031532131028512334,0.0887863843152455,0.5801823320234957,-0.21014457993666266
2110,0.900,0.5702452651882508,-0.3222643667165278,0.09749709384392105,-0.7493065675457323,-0.15992843338817395,-0.05024773775991599,9.9202808926471,-0.002778327211147179,0.002363146391191701,0.007100903939067304,0.08390310935221361,0.5769158901230795,-0.21332701012181982
2111,0.908,0.5702502489467326,-0.322268149016935,0.09748763258342004,-0.749302379015754,-0.1889131183646936,-0.09644012696055738,9.883672540038049,-0.0004670061649138797,0.0019705626553278587,0.00308364849116064,0.08989987229644016,0.5699713843924199,-0.21553200754631274
2112,0.917,0.5702564563542931,-0.32227019879537966,0.09748580135141469,-0.7492970115311441,-0.18013412121447275,-0.08266431695409397,9.83569152232716,-0.0018670907596282243,0.0032320736739079115,0.0026160668523351072,0.0900029693477478,0.5715039930023907,-0.20664376688997002
2113,0.925,0.5702614404703131,-0.32227398090123177,0.09747634017255126,-0.7492928225022321,-0.16419863542945173,-0.10089693617409054,9.869252642007353,-0.00046706872842465394,0.001970622310489209,0.00308375190025759,0.0940840770869533,0.5679019121155792,-0.20885298897722487
2114,0.933,0.5702633026165854,-0.32227221990182814,0.09748086569416017,-0.7492915739496139,-0.19077077594574962,-0.06927842860704077,9.87348182854332,-0.0021113805481924714,0.004297291338044059,0.00013981536908927347,0.09050795329604602,0.5739675356281163,-0.20781207683138986
2115,0.942,0.5702563921917805,-0.32227899120317016,0.09747809990512595,-0.749294280661722,-0.16585113089456208,-0.07369662979136975,9.85906770230851,-0.0014000356410944891,0.001261554209502714,-0.0004676131338233371,0.08716417616081727,0.5706757660798895,-0.20956620429589404
2116,0.950,0.5702658045282494,-0.3222866576750618,0.09746371623194397,-0.7492856908340408,-0.16594171796468155,-0.07375978179943442,9.859065705679248,-0.00022298280377573896,0.0009055153699841068,0.005560210830561951,0.08192396011004639,0.5695358313167925,-0.2026028499241826
2117,0.958,0.5702843750707365,-0.3222949864678381,0.09745730909414996,-0.7492688076731897,-0.17624414305705743,-0.06029437103717662,9.89686313683317,-0.0027789068265390766,0.0023636956719093405,0.007101507632782261,0.09019890052829097,0.5794631917591048,-0.20625477144760682
2118,0.967,0.570266658870356,-0.32228984539246575,0.09746560585727324,-0.7492834236873367,-0.16518528023647974,-0.10147333734741648,9.86923026826114,-0.000955353711169583,0.004101017679512976,-0.0018687793515175257,0.08298715266218222,0.5693282270714609,-0.2140600765853481
2119,0.975,0.570265957118764,-0.32228783557053603,0.09747031460268667,-0.7492842097401581,-0.15054721374773958,-0.09229661192523382,9.89261678898348,-0.002111307739094284,0.00429757681701809,0.00014007294280046398,0.08047076325480744,0.5773845469133855,-0.2049452578664403
2122,1.000,0.5702717524035226,-0.3222837550404749,0.09746772780186072,-0.7492818906691721,-0.17072294523186626,-0.06986132870322845,9.871637484710241,-0.0012524795436888623,0.0037584173002748293,0.002305405388676447,0.08697782655650993,0.5712351643905486,-0.21861973188406766
2123,1.008,0.5702717972281085,-0.3222892563527685,0.0974700400158536,-0.7492791895048937,-0.15292182722332565,-0.06535066582754724,9.882421713156338,-0.0027999119098299614,0.0025235723787012184,-0.0009351294265694724,0.08358384015726794,0.571356216621559,-0.20636276616658528
2124,1.017,0.5702960251890998,-0.3222905645737604,0.09746326252664682,-0.7492610680516523,-0.16702028794758686,-0.10229868601684693,9.86919086386909,-0.002091205941043651,0.004138229042039903,0.008177403480856871,0.08496754522034677,0.5678660153968792,-0.20904282472834623
2125,1.025,0.5702924809793232,-0.3222752181208162,0.09745298117131239,-0.749271703979573,-0.1798897671238482,-0.033767552463856106,9.88664139454422,0.0032219615712754737,0.005126266293583449,0.0012178158340558156,0.08679457186664843,0.5657606464013386,-0.20595822718390336
2126,1.033,0.5703093623272206,-0.32227601202339173,0.09743682896727678,-0.749260613990232,-0.16772961789156515,-0.1020885603166648,9.869181009516428,0.0004646085014495685,0.002680107479411209,0.0066364026288170145,0.08642974839740863,0.5685225347927488,-0.21156703566805507
2127,1.042,0.5703088323100578,-0.32228321518375747,0.0974442344689906,-0.7492569560362525,-0.1691089745549644,-0.07477650492485792,9.859004229104858,-0.003955982420414684,0.0027205414475368244,0.0010736459800016391,0.08953749560643956,0.5687195699671911,-0.20919607001413507
2128,1.050,0.5703262681639438,-0.3222822489726508,0.09743593073719879,-0.7492451796579648,-0.14423287825913553,-0.079251602059224,9.844597695353675,-0.0009354144622346922,0.003942112479083275,0.006169085581842695,0.09521439417492979,0.5630374477326495,-0.2104079492660239
2129,1.058,0.5703324764531257,-0.322282652707391,0.09743035064928424,-0.749241005844641,-0.1786962944720456,-0.08890775796817894,9.906961983725598,-0.0007112403879358871,0.0030363340961534176,0.0006081416380800351,0.08960940096720926,0.5717397178995545,-0.20851058923791096
2130,1.067,0.5703442557845363,-0.3222887075959319,0.0974224207963474,-0.7492304657286083,-0.1710402283310717,-0.047676383596509574,9.848817554540865,-0.0016241491385824021,0.0021679152331217063,0.00509353751454818,0.08687247479984085,0.5767294240195265,-0.21177350534448175
2131,1.075,0.5703600118836275,-0.32228577710291556,0.09742343424450682,-0.7492196001048593,-0.16904612798798227,-0.10273302371803601,9.869151860414098,-0.002335426288311802,0.005204437135307979,0.005701905672758691,0.09276151208895297,0.5772593051763429,-0.2055088227098658
2132,1.083,0.5703485513375103,-0.32229604662045713,0.09743673834360897,-0.7492221768881292,-0.1668412854283293,-0.025252997594270032,9.910004161283322,-0.004887924632609277,0.0020119901601966593,-0.002478541395788772,0.09092900352809952,0.5689060360707442,-0.21294608141955285
2133,1.092,0.5703530765067815,-0.322281397632323,0.09742355186747681,-0.7492267483218487,-0.1846133039234486,-0.11239267008564688,9.845736670632277,0.0032221433479780025,0.00512624908737142,0.0012188390949811002,0.09105245409346006,0.5738317248201844,-0.20944465348956984
2134,1.100,0.5703597525951496,-0.3222927135557664,0.09742384477187185,-0.7492167602759078,-0.13093637697388266,-0.07064884850723328,9.867969045552869,-0.0037128145694012575,0.0016558455356318969,0.0035502710323079218,0.08946742191774067,0.5753431952883766,-0.21367696960313465
2135,1.108,0.5703733253276118,-0.3222970997096557,0.09742380124611236,-0.7492045463184435,-0.17127743080307858,-0.07593354560161757,9.85895795191076,-0.003024318376389583,0.003430307168262125,0.004626366423468383,0.08522927163827893,0.563571518395498,-0.21232225690053724
2136,1.117,0.5703788672252764,-0.32229912006318734,0.0974221918822067,-0.7491996673505484,-0.19670785816769795,-0.07184703978447392,9.873346971746924,-0.00186778493376713,0.0032335025823257897,0.0026175090431237256,0.08532993519459921,0.5645608837737418,-0.20886606956287435
2137,1.125,0.5703845579901783,-0.3223029425335904,0.09741250824637687,-0.7491949495810073,-0.1567943450502806,-0.06692874029595457,9.88235046852695,-0.00046807815668753347,0.001971293757922426,0.003085082022935714,0.09075596526542874,0.5744868477140433,-0.20569151529083995
2138,1.133,0.5703833068903544,-0.32230268888696556,0.09740936939115885,-0.7491964193133018,-0.17083202357696253,-0.10371912303056788,9.869110793873691,-0.0007111690363301213,0.003036665558460716,0.0006086136487696821,0.08436558762837346,0.5745867618032752,-0.20589615435484115
2139,1.142,0.5703740824801031,-0.3223035684752184,0.09740233755870319,-0.7492039778466354,-0.1560565965048968,-0.09442683661125427,9.892511307151937,0.0006885321297096313,0.0017743893504155507,0.0010761573307157533,0.08396062574331481,0.5728543250148407,-0.20778559699894217
2140,1.150,0.5703994250891846,-0.3223013538744915,0.09741126400504317,-0.7491844758092212,-0.1575499615095267,-0.06714236158805513,9.882337003698042,-0.004892499256910637,0.0066644410535600515,0.007244399687528599,0.0875715516144855,0.5797868651726003,-0.21201374737958764
2141,1.158,0.5703983496861654,-0.32231559604161514,0.09739905616475396,-0.7491807546125653,-0.17276529378586433,-0.07666352660577498,9.858926341407226,-0.0009138813558961498,-0.0008683342794011045,0.004485580879280032,0.0918545286927062,0.5665396145302293,-0.20513862949826417
2142,1.167,0.5704021782225,-0.322297264344222,0.09740148939416082,-0.749185409854635,-0.19934118495177147,-0.04494234966471282,9.863146606121495,0.00042312119622101425,0.007651010501902296,0.00028489489822014377,0.08728699187522297,0.5730647222641936,-0.20932236994026995
2143,1.175,0.5703962643808754,-0.3223115136836924,0.09740953527964256,-0.7491827361624628,-0.17339875109275135,-0.07685346409398623,9.8589137423134,-0.004644647816161396,0.0009475361577807232,-2.327984306408897e-06,0.08975854802430416,0.5692761752738289,-0.20767175529070311
2144,1.183,0.570402361842652,-0.32231177197607863,0.09741577609490722,-0.7491771711803503,-0.17362307225131696,-0.07717693993962148,9.858907267725646,-0.003267677697627832,0.004496419530402012,0.002150534084518498,0.08626914823925165,0.5664945452426507,-0.21948399674962582
2145,1.192,0.57041266293634,-0.32231416764994464,0.09741226015919334,-0.7491687545971702,-0.13267593176990533,-0.0998355336252391,9.878082505534634,-0.00186807356429808,0.0032339866945230657,0.0026180800895445047,0.09652812481601589,0.5780530318821551,-0.2132269327868533
2146,1.200,0.5704255551489968,-0.32231669926932616,0.09742003191397784,-0.7491568385771874,-0.19942745335024697,-0.0733527712076308,9.873281343114904,-0.004424705575554453,0.004693702893245238,0.004159830515296424,0.08803697904350363,0.5754909716692084,-0.21000425839597586
2147,1.208,0.5704448272731345,-0.3223176795072139,0.09740362641015161,-0.7491438754181742,-0.1745764319330451,-0.07779295008491866,9.858885590079662,0.00046254554894549894,0.0026804436580094904,0.006638830799730153,0.09125251814631687,0.568458517422217,-0.20579111961413712
2148,1.217,0.5704316791097046,-0.32232041042090626,0.09740717849773937,-0.7491522502611146,-0.1849714003131652,-0.06426736969897104,9.896678869296943,-0.0016421326424640506,0.002328145117641032,-0.0029439668309587668,0.08862225974981733,0.5801077455820745,-0.20884226097102274
2149,1.225,0.5704472206286454,-0.3223284786555138,0.09740293319583346,-0.7491374966783625,-0.14868530058363447,-0.10975834771681352,9.854652142666636,-0.0027827304350152003,0.0023658694817119534,0.007104045205052109,0.08636443578985227,0.5666289595485718,-0.21278214959845104
2150,1.233,0.5704414212762884,-0.3223317212474174,0.09741586513988675,-0.7491388359903737,-0.16026298062341524,-0.06901694133026026,9.882280463555189,-0.004198707443899073,0.003788149615163727,-0.001402162931525524,0.08537967511303166,0.5707383869484107,-0.21148092850226105
2151,1.242,0.570459059715946,-0.32233073570031673,0.0974075481583505,-0.7491269101912377,-0.1755513567762516,-0.07850757817234047,9.858862613821934,-0.0009373684005850566,0.003943176692949875,0.006171868528958175,0.09024321812871364,0.5777054273228597,-0.20616678471403482
2152,1.250,0.5704646052814326,-0.3223327538819365,0.09740594153833672,-0.7491220277424878,-0.1758490795376807,-0.07861639446882597,9.858856440740734,-0.0018682619495408472,0.0032344327446992794,0.002618636709019149,0.08283626655759682,0.5763086295208205,-0.210017863438674
2153,1.258,0.570462158209856,-0.32233406702897943,0.09740830881271206,-0.7491230183737233,-0.16114866527879027,-0.06948521664978866,9.882262778512889,-0.00186829260345775,0.003234489359466633,0.0026187047088586314,0.08305362906281617,0.5666915804170931,-0.2139280964849902
2154,1.267,0.5704728096945709,-0.32233082577918165,0.097398481209581,-0.749117579562621,-0.18659770788874822,-0.06525983160985828,9.896641845039536,0.0002196476898661741,0.0037461395159492476,0.00416304651132104,0.08575651365349464,0.5770383388561007,-0.2091045988452399
2155,1.275,0.5704879586514671,-0.32233700711026975,0.09740168466088511,-0.749102966691561,-0.14565021250296428,-0.08788074972318628,9.915825261927306,-0.00418296308794059,0.0036292982388919587,0.006637321859655846,0.08120033731249324,0.5738943456887057,-0.20729584043398924
2156,1.283,0.5704850226471967,-0.3223292179672257,0.09738879274680987,-0.7491102303581119,-0.187194493292179,-0.06547755856532088,9.896629136837431,0.0025342803532557956,0.0033515579621413417,0.0001448124171804188,0.08660648985697651,0.5685584315114488,-0.2068743613293703
2159,1.308,0.5704937938189266,-0.32234558569016136,0.09738197561257918,-0.7490973938186851,-0.17243508754403897,-0.0760913658292875,9.866628584404571,-0.0020172039684549377,0.002288158947610068,0.003085507530268555,0.09049360399654167,0.5762446121502885,-0.20566967669300792
2160,1.317,0.570495356851507,-0.3223564437371135,0.09738576807148812,-0.74909103797146,-0.15261719392961726,-0.08386736445965871,9.844433045129046,-0.003714350241655855,0.0016579290175240291,0.003551287218084373,0.08923979003091455,0.5691030712451866,-0.20815895847474505
2161,1.325,0.5705003264723019,-0.3223474028875852,0.0973901064189528,-0.749090579648637,-0.17809735382167083,-0.07978306567262118,9.858806710981286,-0.0014218805318495205,0.006075123892098554,0.0012198437118540282,0.09328917049533343,0.576333957168631,-0.21748655938654635
2162,1.333,0.5705053189452753,-0.32235684379820295,0.09738720690649756,-0.7490830916811312,-0.1634432694318774,-0.07066989516032268,9.882216693222789,-0.0025569460106037224,0.0014605851557370569,0.0015420177989939002,0.07884790032304657,0.5721766674771923,-0.21739351484650507
2163,1.342,0.5705227669869698,-0.3223558758145214,0.09737891420887958,-0.749071297504373,-0.18882995959154256,-0.06651596289211305,9.896591142080357,-0.0009382903738448292,0.003943901195235959,0.006173354650038786,0.09387198467862153,0.5687702252628125,-0.2157867367231766
2164,1.350,0.5705128271988905,-0.3223624323149661,0.09736470223213498,-0.7490778938086184,-0.1536256628855764,-0.08436323096495388,9.844413121934924,0.0011576096218683563,-0.00019750667570258703,-0.0020093506260592127,0.08578405510155153,0.5747359346861176,-0.209049918943141
2165,1.358,0.570532518890693,-0.32236723352518853,0.09737401378998835,-0.7490596191732574,-0.18806119913114283,-0.09413991516637636,9.906740300885886,-0.005583176581497188,0.004893459700668483,0.0061709050954020335,0.08995268056081483,0.5792288633639519,-0.20945721959266073
2166,1.367,0.5705322073367541,-0.32237052625704765,0.09736741623755545,-0.7490592970168838,-0.18038495502941015,-0.053033232390513295,9.84862344505295,-0.0004692371793650134,0.001972023311907115,0.003086850435766824,0.08519940260406675,0.5749343663625706,-0.21021066914255995
2167,1.375,0.5705388669798727,-0.32236901594947187,0.09738151018237237,-0.7490530423779701,-0.1886693520035129,-0.09459076373195112,9.906724443060988,-0.004667252083533905,0.00576195501936242,0.0016851380707289321,0.09146516588268379,0.5744389854224434,-0.21242432417850368
2168,1.383,0.5705431957446858,-0.3223708856900245,0.09738085610473911,-0.7490490255738794,-0.16975636331382812,-0.09452729569108578,9.820966894703332,-0.0018686703421115381,0.003235397041584988,0.0026197523268600234,0.08699523755983049,0.5743165366894223,-0.2153288314782357
2170,1.400,0.5705520310367787,-0.32235632708162676,0.09737383557587727,-0.7490494739438054,-0.16042515336741786,-0.07854999933628652,9.863276117765528,-2.2514788581372455e-05,0.004812391815150449,0.0016880465308376875,0.0864346087452574,0.5718874942803861,-0.20395927537952027
2171,1.408,0.5705356693160333,-0.32236973722531487,0.09737369824264282,-0.7490561831064064,-0.16478807706814594,-0.099312670392882,9.892321867725002,-0.0020876591347333685,-0.0005110991427219293,-0.0015449368808802691,0.08461949126134674,0.5734510165462103,-0.2178746727298497
2172,1.417,0.5705480124217502,-0.32237402695396794,0.09737362992831665,-0.749044944220076,-0.18209761771454008,-0.05387305168257722,9.848587369738226,-0.0030267282158491274,0.0034331725667511507,0.004629344957962275,0.0896411612700342,0.5725440136762558,-0.20736208897046096
2173,1.425,0.570552200290687,-0.3223666768080903,0.09737041875554331,-0.7490453350622607,-0.156159680580078,-0.08574702817680324,9.84436129609305,-2.2559600972837306e-05,0.004812515125850844,0.0016883397665690136,0.08949201421293929,0.5750075563019812,-0.20820092291766892
2174,1.433,0.5705702081126026,-0.3223639450383263,0.0973699784493738,-0.7490328509821429,-0.18173881116354826,-0.08154327294196466,9.858725854037113,-0.00233856727934241,0.005207935040435409,0.005707343836302972,0.08378926028946664,0.5736733793684633,-0.21572393115113886
2176,1.450,0.570567009791266,-0.32237070139769813,0.09737472040860252,-0.7490317630404978,-0.1540957336570475,-0.08843717497719879,9.88003054689999,-0.0023337238704509286,0.002881483332143845,0.0008428855446675978,0.08718523076449296,0.576850476250537,-0.20138357026086715
2177,1.458,0.5705648677010579,-0.32237556582347265,0.09737391123820542,-0.749031406361205,-0.16756250184848803,-0.07281410718841227,9.882132139434084,-0.0016278937792988935,0.002169969767954701,0.005096940416672286,0.08089064969378332,0.5768532692545583,-0.20899612862456513
2178,1.467,0.5705760816778478,-0.3223705595815583,0.09737193736951526,-0.749025275371355,-0.16786083270975624,-0.0729236081259978,9.882126269515242,-0.0011807006135034477,0.005010514351350257,0.003698390793581172,0.08218086585029402,0.5712351643905486,-0.21620357459317996
2179,1.475,0.5705673731240243,-0.32236959312442487,0.09737173151616649,-0.7490323518091108,-0.19336057746234595,-0.0687009105423581,9.89648873230168,-0.0007108785876183917,0.003038254609165647,0.0006109011945650594,0.09250032125526948,0.5722083746898603,-0.20331377159324707
2180,1.483,0.5705802902570191,-0.3223849411365503,0.09736572551911389,-0.7490166871256844,-0.1683451113638077,-0.07316616310018417,9.8821162382398,-0.00347465920568458,0.0005933984727985736,0.00602857340802652,0.0912542306253037,0.5730555496953149,-0.22369755210331824
2181,1.492,0.5705916110840716,-0.32237820494827313,0.09735979841335858,-0.7490117328772116,-0.1445076333329232,-0.0501434535708665,9.857592663971865,-2.2505408975606486e-05,0.004812880920080949,0.0016891735092763663,0.08342387485006576,0.5718649596365969,-0.2110221336737971
2182,1.500,0.5705847011208421,-0.3223849661434731,0.09735703417415949,-0.7490144460211186,-0.1837764747074364,-0.08262408844581419,9.858679080734877,-0.0013991520961305572,0.0012637821503044579,-0.00046716335069337754,0.08191857082007493,0.573237826292836,-0.2058698828083203
2183,1.508,0.5705922798123043,-0.32237209995083577,0.0973588141539414,-0.7490139789739734,-0.14398535083853126,-0.07773627812815806,9.867733984333995,-0.000492589031606722,0.00678541197988691,0.004777123991733762,0.09015152786617797,0.5735840343501208,-0.20851971237656786
2184,1.517,0.5705978297004117,-0.32237411394534,0.09735721400785297,-0.7490090922544037,-0.1706706834130626,-0.04606910533578204,9.871942318250587,-0.0018692194884315162,0.0032363408181970968,0.00262069603908764,0.08332269563587456,0.5733856026736678,-0.2036249009094134
2185,1.525,0.5705955232682214,-0.32237724418552216,0.09735158050119647,-0.7490102342635461,-0.15846854128265928,-0.11464195070315027,9.854444073919735,-0.00047013004890526257,0.001972518683992319,0.003087914671699214,0.08988125782987778,0.5620614444293164,-0.215026241913835
2186,1.533,0.5706056099302405,-0.32236294172907703,0.09734769935293301,-0.7490092103216126,-0.1803543444272553,-0.06004909611466764,9.91987607595458,0.0006657062654219486,0.006587785345130802,0.002768013197764382,0.08503765193708401,0.5728796526626513,-0.21053180369644303
2187,1.542,0.5706032426750461,-0.32237005534137025,0.09734312746647433,-0.7490085462816628,-0.17046281779693562,-0.07363796361330052,9.882076430763433,-0.001399081682143297,0.0012639292722728237,-0.00046718144209832095,0.08709833461113817,0.5758491452993932,-0.20644059082189298
2188,1.550,0.5706172739182303,-0.32238187316225275,0.0973528236229519,-0.7489915101622735,-0.1706448255770709,-0.07395060456844181,9.88207095614222,-0.0062737088588575365,0.0031218326868196946,0.00509444568587039,0.08597451100966882,0.5699580223175092,-0.20975723831719711
2189,1.558,0.5706149461789696,-0.32236659331116685,0.09734223490817613,-0.7490012363255526,-0.14581625569130197,-0.07837312787542045,9.867702060896486,0.003223272890347559,0.005125926044533614,0.0012260217548837105,0.09412600086255282,0.5749596940103813,-0.21691058777060432
2190,1.567,0.5706233110812508,-0.32238543163641564,0.09735230467125876,-0.7489854465171316,-0.17125454198940238,-0.07422191945180533,9.882058374641066,-0.0069621289828435545,0.0013474695459642068,0.004015953432815341,0.08468065789492897,0.5702043162855622,-0.20418517962895238
2191,1.575,0.5706293817753069,-0.3223892619208643,0.09734295216904282,-0.7489803883386184,-0.16117460167840766,-0.08808071345666255,9.844259863070324,-0.000470386636123253,0.001972656211529995,0.003088270268245134,0.09462208439786021,0.5785216886724609,-0.2056139578513017
2192,1.583,0.5706349331768437,-0.3223912748716761,0.09734135346947058,-0.7489755001531135,-0.17270510421891241,-0.047153599603276246,9.87190181598932,-0.001869437300703968,0.003236798986303356,0.002621214511017313,0.09058159770430621,0.5724708237368452,-0.2120076431490478
2193,1.592,0.5706416123236288,-0.32239334912172957,0.09734027312269482,-0.7489696589015893,-0.19704890563794478,-0.07046251709773833,9.896403595318223,-0.0018694680633387613,0.0032368557789336826,0.0026212827121416065,0.09141605417308031,0.5730766878370936,-0.20980821801358282
2194,1.600,0.5706347021681438,-0.32240010860207363,0.09733750951558227,-0.7489723732529451,-0.1870144788058066,-0.08415243878826752,9.85860526146221,-0.0013990039680334993,0.0012641686405478736,-0.0004670881756122945,0.08619382438004294,0.5750314874477812,-0.2033518764998832
2195,1.608,0.570654339251431,-0.32240098971110115,0.09733356095881102,-0.7489575454175578,-0.14602462766459184,-0.10680242851849853,9.877821322366524,-0.0020998029928715072,0.00414360386290382,0.008186665421229958,0.09330242224042802,0.5788320000110457,-0.20823397250786263
2196,1.617,0.570654211190646,-0.32239719639395265,0.09734612443545666,-0.748957643038041,-0.17269130485670153,-0.07526218882937104,9.882025503105034,-0.0035086749328200367,0.005567414851780761,-0.00032233900016431175,0.0872492803122655,0.571392113340259,-0.20342729713036434
2197,1.625,0.5706413196712132,-0.32239603168760184,0.09733644856503035,-0.7489692242120036,-0.17298506388938065,-0.0753315096653903,9.882019835943359,0.0018470385721308955,0.001576529777125424,-0.0009307971314005172,0.0942566327197915,0.5764683714745521,-0.21122401356098752
2198,1.633,0.570658219958227,-0.3223968293000721,0.09732031817784957,-0.7489581003775381,-0.15821342770634356,-0.0659805133456877,9.90545341519009,0.0004576137642027786,0.002681395242639396,0.006644325615719923,0.08709527954944778,0.568212223454164,-0.20861754501728214
2199,1.642,0.5706665088731688,-0.32239722256806536,0.09732631369935467,-0.7489508362987536,-0.18840907672780416,-0.08459304257054706,9.858574937680945,-0.003268567348384504,0.004501538232229384,0.002154528572219072,0.0860655597791237,0.573821155749295,-0.21391825057784783
2200,1.650,0.5706652666420934,-0.3223969603110367,0.09732317845954824,-0.748952303130876,-0.17377204456517115,-0.07550373083406281,9.882004714228847,-0.000710743141387834,0.0030390454351674943,0.0006119504320841453,0.09669399507106041,0.571332285475759,-0.21615395249755043
2201,1.658,0.5706854751087366,-0.3224018532381231,0.09732009898815547,-0.7489351987064539,-0.1590929610528059,-0.06640399644434429,9.905436498394785,-0.003028705290100883,0.003435541794315041,0.004631476651969944,0.08374199353618571,0.577397908988296,-0.21039055110134394
2202,1.667,0.5706904716154827,-0.3224056309902315,0.09731065243589934,-0.7489309925724722,-0.1490918156770123,-0.08009858238718948,9.867639257663548,-0.0004708390372249434,0.001972957367299784,0.003088872940385119,0.09149509451343794,0.5655995079455962,-0.20748040509827814
2203,1.675,0.5706871638240675,-0.3224051521959488,0.09730888057369794,-0.7489339494544521,-0.16424587288560574,-0.08939359949546559,9.844197265227276,-0.0007107090269962961,0.0030391514082753596,0.0006120892451407399,0.09063552344946837,0.5701177642712411,-0.207558803165987
2204,1.683,0.5707108506638976,-0.3223953960901751,0.09730807915063586,-0.748920203523956,-0.1497137538697668,-0.08023741748254845,9.867628714512097,-0.0016525792647835687,0.006985279151007424,0.006790109747311858,0.0858894730968885,0.569486572523182,-0.2055842922956993
2205,1.692,0.5707031113302412,-0.32240944710176006,0.0973168395645059,-0.7489189140852941,-0.1591878065848764,-0.09440114725375165,9.915557235820636,-0.00464499740608107,0.000952683632739391,-3.5633819817181457e-06,0.08931285918476187,0.567592997279005,-0.2085566115285591
2208,1.717,0.5707316731738674,-0.32239967152641236,0.09731915827187242,-0.7489010551929229,-0.16441598483778128,-0.07339985498006567,9.861197623127264,-0.001877450572451004,0.0048423882452329845,0.003186103695090572,0.08078219656313378,0.5676302904997156,-0.20486967042092155
2209,1.725,0.5707325401792833,-0.32240121091187063,0.09732040313853847,-0.7488995699798573,-0.19153597204095232,-0.08614468940131684,9.858501246097491,-0.001870020453630175,0.0032378474564746006,0.002622336344035919,0.0920671367589089,0.5631612929676814,-0.20905830185435914
2210,1.733,0.5707307422435889,-0.3224027139586522,0.09730941824459347,-0.7489017205288531,-0.17572124589566832,-0.1044111547039841,9.89208119686816,0.0006881021428169945,0.0017747539415968285,0.0010795318586414217,0.09055637720027859,0.5679912571339217,-0.21748493706004773
2211,1.742,0.5707583569754966,-0.32240438923525905,0.09728906507917129,-0.7488825979821487,-0.1769863916696591,-0.07689389936913821,9.881936948452125,0.0004562187389540105,0.002681742124744447,0.006645842300904825,0.08484832679400603,0.5614900805457573,-0.20493773959532857
2213,1.758,0.5707632335547256,-0.3224043678923693,0.09729218477780252,-0.748878485181166,-0.15277162543351733,-0.0676103772181296,9.862510554374122,-0.0019897309195499088,0.0037712159956254827,0.0013840469979803916,0.08911094353345651,0.5701578504959729,-0.21818376563769062
2214,1.767,0.5707749411328199,-0.3224234164672833,0.0973011970425081,-0.7488601899837422,-0.17885417266588274,-0.0500124792451518,9.87177825603693,-0.006964041919599134,0.0013504884891846823,0.004016041357569139,0.08500230098832003,0.5737838625285845,-0.2127728771037099
2215,1.775,0.5707669080375122,-0.3224208773655054,0.0972965209593509,-0.7488680134291775,-0.1516995321837649,-0.10951992376222178,9.87770604228224,0.0004488804152999652,0.0028411191792075676,-0.0013971087591355714,0.0877284685021232,0.5693627272881502,-0.20627498771894018
2216,1.783,0.5707691380396734,-0.32242255139298825,0.0972966819215353,-0.7488655721167476,-0.17927744420658215,-0.050336058647375274,9.871768932603558,-0.0018702053690221251,0.0032381887600266748,0.0026227461586626954,0.09433144092112929,0.5704414376847364,-0.21650271370868346
2217,1.792,0.5707803665590557,-0.3224175402122143,0.09729471577383488,-0.7488594268597437,-0.19348465491552008,-0.08716158016536853,9.85845425560379,-0.0011821805105681508,0.005013043204558193,0.003702652150633932,0.08458241454934418,0.5743151401874117,-0.20872200634558505
2218,1.800,0.5707827268947663,-0.3224285342306019,0.09728471463541039,-0.7488541936123394,-0.1787611123571843,-0.07801467454287045,9.881896218812109,-0.0011596257224303788,0.00019857478585372492,0.002009932137958402,0.08902780353141485,0.5795750714212365,-0.20749438524194078
2219,1.808,0.5707826149658654,-0.3224375643842521,0.09728349188452004,-0.748850549664908,-0.1536520709797022,-0.08247685742637037,9.867549710204388,-0.0025583307855154775,0.0014635682005520636,0.001543024683760428,0.08221744018867755,0.5683241031162958,-0.2079901281777484
2220,1.817,0.5707852288448353,-0.3224225658963097,0.09728327021619042,-0.7488550439634049,-0.17916369001337681,-0.07823983242322777,9.881887149182091,0.0006654816101379702,0.006589386325437995,0.0027729145429518922,0.09565295467701003,0.572939480527151,-0.20790907881842371
2221,1.825,0.5707902287734149,-0.3224263426373434,0.0972738262703724,-0.7488508336331214,-0.18058844878317043,-0.05076143164276831,9.871742858443652,-0.00047168413834158677,0.001973448954665597,0.003089945202449857,0.08037421928654893,0.5676197214288262,-0.21164959946868328
2222,1.833,0.5707826558557799,-0.3224219763898328,0.09727747952586896,-0.7488580111691344,-0.15458911497225078,-0.08259782608026311,9.867534062979681,-0.0009495425130353639,0.004106298936567783,-0.0018637939718553847,0.08333408249826876,0.577632237383449,-0.20685862696207807
2223,1.842,0.5707950105072384,-0.3224262602378661,0.09727742788626802,-0.7488467564948772,-0.1800804061308816,-0.07844685933039793,9.881868844135019,-0.00303023335212089,0.003437210990629443,0.0046330456386723656,0.08668920682572756,0.5758118520786826,-0.20562469334196706
2224,1.850,0.5707881491219547,-0.3224179533678846,0.09727931527826797,-0.74885531779309,-0.15524168162310192,-0.08288109808692022,9.867521442917845,-2.2645863623763182e-05,0.004814804527862792,0.0016933346153478951,0.0870821337131853,0.5753178676405661,-0.21027181091720992
2225,1.858,0.5707937077972193,-0.322419962270628,0.0972777228172778,-0.748850422789488,-0.1967586753208087,-0.06041115489066588,9.848267438474878,-0.001870524900329796,0.0032387015049413176,0.002623214020752092,0.09336711328128135,0.5736318966417207,-0.20376375945417602
2226,1.867,0.5707908782156373,-0.32242871613467705,0.09727855937066916,-0.7488487018379166,-0.1557690764169379,-0.08313553567919027,9.867510990711994,-0.0025585267854050494,0.0014638905295612384,0.0015430668858900545,0.08724324288708726,0.5771143217995325,-0.21646461628651056
2227,1.875,0.5708015500898413,-0.3224254723013834,0.09726874540602871,-0.7488432388647185,-0.18116674604849084,-0.07891387625168325,9.881845269066053,0.00021601810531287564,0.003748439848835733,0.004170496364775605,0.08834371750935528,0.5744988132869433,-0.20288260342203315
2228,1.883,0.5707971032976699,-0.32243587874189905,0.09726179205530965,-0.7488430508278212,-0.15614979147353356,-0.08326292629919345,9.867503899056944,-0.0011599624828903855,0.00019875959687686533,0.002010002923858147,0.09051512130367226,0.575107470391213,-0.2121396232494057
2229,1.892,0.5708015385507311,-0.3224285917655673,0.09725828638871514,-0.7488432629922785,-0.17235648765105194,-0.06507521820577448,9.833912113300228,-2.2625491140365344e-05,0.004815000438928445,0.0016937211502643834,0.08917505931989697,0.5649443850517373,-0.20991563932016014
2230,1.900,0.5708001153650396,-0.3224431439173634,0.09726413974528944,-0.7488373216924711,-0.18177706905377736,-0.07918488026397892,9.881831893327437,-0.004645136041206346,0.000954477891920606,-4.130902538427054e-06,0.0927889409860519,0.5676316870017262,-0.2163088101353476
2231,1.908,0.5708039924265503,-0.322437625300421,0.09725278364288716,-0.748838217570555,-0.18302664500927898,-0.05185049744713485,9.871692294287497,0.0013759088361618885,0.0035497408186607056,0.002160775024196129,0.09039178328926972,0.5775069956464066,-0.20478638385180792
2232,1.917,0.570807520384385,-0.3224469085706475,0.09725070236048523,-0.7488318013521161,-0.15698838563619757,-0.08367915948316051,9.867487072164128,-0.0025586348881524237,0.0014641252382949683,0.0015431373958317873,0.09201569746315012,0.5708594391794212,-0.2042759280293621
2233,1.925,0.5708244262213545,-0.32243487560082257,0.09724836839084677,-0.748824398821688,-0.14239668546085282,-0.07456952768390226,9.890934679543893,-0.0004948489063426022,0.006788857929912541,0.004784572531698412,0.0880394191806169,0.5737557418767525,-0.2013158587284713
2234,1.933,0.570817562103357,-0.32243410905334197,0.09724878461097418,-0.7488299072586824,-0.15773591829932276,-0.08384657822090702,9.867473729700892,-0.0007106126692154113,0.0030403087157477872,0.0006136419050285435,0.09499756061183315,0.5655875423726962,-0.21083844362410484
2235,1.942,0.5708293593023265,-0.3224401606546039,0.0972408870332597,-0.7488193341818267,-0.15795224439115366,-0.08393915385033737,9.867469482116473,-0.0016324746225405194,0.0021726658742263214,0.005100658542305296,0.07994354762550411,0.5778334620639234,-0.2173891408276588
2236,1.950,0.570843990810844,-0.3224335379117364,0.09724561934868929,-0.7488104174638333,-0.1834866302474231,-0.07978943736539292,9.881795435630515,-0.0025814092544192823,0.0062797016957234966,0.0032375709587821374,0.08774164736642397,0.5738943456887057,-0.21059060037610888
2237,1.958,0.570838765146179,-0.3224478177941725,0.09725262243670374,-0.748807342669225,-0.18484339226079194,-0.052616198487388154,9.87165439226669,-0.004645177643620268,0.0009550211276761551,-4.308727053087278e-06,0.08479867285802788,0.5717516834724543,-0.20449359872366038
2238,1.967,0.5708511055337662,-0.3224445350525213,0.09725511743238963,-0.7487990246113123,-0.13261539850284135,-0.11647164732272644,9.86324906533203,-0.002343335033677724,0.005213222885397053,0.0057148546778565505,0.0848387583194307,0.5714441651378909,-0.21201212505308897
2239,1.975,0.5708493114275596,-0.322446036462749,0.09724413314053632,-0.7488011723961779,-0.18433148012477996,-0.08043082707040607,9.881774511338671,0.0006878960043816018,0.0017749218006302457,0.0010807873026601631,0.08959921756805689,0.5723216508540028,-0.20907352922355593
2240,1.983,0.5708538826276158,-0.3224478911299385,0.09724328345247468,-0.7487969992048671,-0.1604092460931843,-0.05732639083359576,9.857307568715942,-0.00187095743481086,0.0032395137928303065,0.0026241046992068096,0.08823946330709591,0.5752179535513342,-0.20743136389951292
2241,1.992,0.5708532109634928,-0.32245868795456806,0.09723421458575808,-0.7487940395123213,-0.15029612367653067,-0.07099220218666659,9.819515810107015,-0.0011604139898520726,0.00019898956913925396,0.0020101303766976272,0.09629990439052505,0.5763564918124204,-0.2104237010922695
2242,2.000,0.5708584570053503,-0.322451411546193,0.09723126926701466,-0.7487935560179879,-0.1607584252978334,-0.05749390845559044,9.857300904914435,-2.2663271111170568e-05,0.004815532003356937,0.0016949399854509827,0.08904453337149044,0.573039394616383,-0.208003892551021
2243,2.008,0.5708702533910817,-0.3224446285187292,0.09723715983151801,-0.748786718685983,-0.18534855044125442,-0.08074722353104571,9.881752907768421,-0.0025816172130980223,0.006280330620273589,0.00323837863222052,0.09147112378494228,0.5730288255454937,-0.2162115509070345
2244,2.017,0.570871144515697,-0.3224481035540024,0.09721739093226664,-0.7487871097809368,-0.17070165356488998,-0.07153957049192819,9.90520748449834,0.002086259786441194,0.0005092530320267721,0.001547812947879389,0.08543185516857739,0.5751806603306235,-0.2054073877741432
2245,2.025,0.570876705543586,-0.32243727560516455,0.0972295881132369,-0.7487859490958358,-0.18595397368040795,-0.0807923245025667,9.881741165319049,-0.0028195438184619474,0.007347195157188524,0.0007615461447979811,0.08910804069288843,0.579204932218152,-0.21221958471377064
2246,2.033,0.570874049004756,-0.3224329407143952,0.09721346287936211,-0.7487919347523623,-0.1462377993236776,-0.07588815916165698,9.890868603911773,0.0027740037297983027,0.0022842594302507897,0.0026289880084678146,0.08370237742036366,0.5681151023689536,-0.21426825901451504
2247,2.042,0.5708880897966878,-0.32244474843213716,0.09722318667858548,-0.7487748827978178,-0.17165082311621474,-0.07170677268036589,9.905189873701495,-0.006278689484401217,0.0031289569307428873,0.005096753577076183,0.09162570644429881,0.5739436044823162,-0.21156286993513568
2248,2.050,0.5708891648625806,-0.32244459647313806,0.09721922280586162,-0.7487746432437501,-0.17657132549449076,-0.09475654798014178,9.843933740265282,-0.0007105525043753065,0.0030408516646071456,0.0006143603049029529,0.08216773329828338,0.5737838625285845,-0.21134514779545807
2249,2.058,0.5708896137257913,-0.32245185339192695,0.0972258568683861,-0.7487703145426753,-0.1870713445659375,-0.08140408112288147,9.881715053774466,-0.003957440941344305,0.002730873585689244,0.0010765778178649283,0.08079601027838938,0.5746986414654071,-0.20592768950373133
2250,2.067,0.5708786454849285,-0.3224598677076475,0.09722932081553065,-0.7487747758979404,-0.16205672033540175,-0.08599142606485805,9.867385254884967,-0.002559105050232875,0.0014650312003018145,0.0015434151042584335,0.09221695833712287,0.5725932724698665,-0.20767540654106384
2251,2.075,0.5708893235195943,-0.32244378759091613,0.09723329667904654,-0.7487730431527894,-0.16348820071827572,-0.058653796279159086,9.85724917577245,-0.0007333889862708693,0.007856900157982714,0.0023103977226759196,0.08740078798355393,0.5715053895044014,-0.21072460940032897
2252,2.083,0.5708910821547593,-0.32246211332223745,0.09723430743067574,-0.7487636791714734,-0.16276155950987384,-0.08633232138784545,9.867370677400029,-0.004407773696876669,-0.00011072398194893475,0.0024722809078850183,0.09232541146777237,0.581816251224709,-0.21180186474470744
2253,2.092,0.5708960860098375,-0.3224658895043971,0.09722486933955546,-0.7487594632902431,-0.14791633633708093,-0.07731070950620295,9.890832626883263,-0.0004730815190447838,0.001974170440734679,0.0030916164634743667,0.09133692120814235,0.5663932346514082,-0.2132216592099939
2254,2.100,0.5709053959513045,-0.32245893860058655,0.09721985730191492,-0.7487560090820395,-0.18935495863507248,-0.05475320720024619,9.8715572616866,-2.2792511870640283e-05,0.004816060735694247,0.0016961297138740612,0.08722284306074421,0.5666409251214718,-0.21162061770070406
2255,2.108,0.5709120815046269,-0.32247023995813817,0.09722018745299615,-0.7487460014484217,-0.18857917536052674,-0.08237409806784957,9.881678355174243,-0.003720156167080889,0.001664496172604599,0.0035537466993058493,0.0937420539110056,0.5700431778298197,-0.20790386417140688
2256,2.117,0.5709167470022191,-0.32247780079524846,0.09722559897792829,-0.7487384849799347,-0.16357182329918454,-0.08700917933530976,9.867351333754652,-0.003957553824914844,0.002731431976015773,0.0010768662511254218,0.08912715107353529,0.5684106551306171,-0.21109619919354902
2257,2.125,0.5709211926144678,-0.32247051055803366,0.09722209506246542,-0.748738689981879,-0.19011566736624746,-0.055376672787654166,9.871539162762298,-2.2812490990693e-05,0.004816157874068406,0.0016964645835839242,0.09469632398691104,0.5702029197835515,-0.20383839838632903
2258,2.133,0.5709314322420831,-0.32248025331147095,0.09722986831357085,-0.7487256764729651,-0.16420338905965198,-0.08737905116677545,9.867337575925719,-0.005118647396247758,0.002930831200524643,0.0030872084015777703,0.09415477234235528,0.5683719654078958,-0.20762718851151593
2259,2.142,0.5709256462396458,-0.3224962991179214,0.0972290235851964,-0.7487232869984456,-0.1745819113288797,-0.07418381309123438,9.905120402956797,-0.0032470789968196676,-0.00030954343301049726,0.00046199616472375623,0.0974997662250777,0.5719353565719861,-0.20315703438767188
2260,2.150,0.5709293727481136,-0.32249642964926056,0.0972251057382862,-0.7487208979393488,-0.14950403197396708,-0.0786689670876165,9.890798045789204,-0.0007105535437792261,0.0030412180438849825,0.0006150755309317169,0.09163346299058979,0.5705399552719577,-0.21317563691934577
2261,2.158,0.5709349421562174,-0.3224855977178255,0.09723730479116093,-0.7487197323742742,-0.1658927965229857,-0.060554191279298945,9.857197509564777,-0.0028194510799296095,0.007348788868656533,0.00076366890657511,0.0927812440363029,0.5735587067023102,-0.20764053631293483
2262,2.167,0.5709425704619929,-0.3224821518846961,0.09721694882854004,-0.7487180429310737,-0.1904421754030801,-0.08370339220674132,9.881631455930886,0.002773621753141892,0.00228376201024978,0.002630218252256365,0.08943151564094161,0.5693986240068502,-0.2023510907000833
2263,2.175,0.570961731774458,-0.32248870787564576,0.09721845728020323,-0.7487004111831821,-0.16653488450233506,-0.0606056364720162,9.85718636547997,-0.004194192900742719,0.003639256302948899,0.006646152817554577,0.0857001743397229,0.5720127360174286,-0.20921645310050604
2264,2.183,0.5709558246826083,-0.3224879814505781,0.09721796505007624,-0.7487052927236839,-0.16577436718841962,-0.08827493572809489,9.867303333223726,-0.0007105487298471023,0.0030413999463780213,0.0006152856853503517,0.08992318160547726,0.5691192263241185,-0.22308384070721443
2265,2.192,0.5709551577333224,-0.3224859395670611,0.09722268401133013,-0.7487060680620268,-0.14088386241104522,-0.09271448082647614,9.852982037157808,-0.0021088015156307586,0.0043078183983781305,0.0001487273620743875,0.08983703285403537,0.5779798419427445,-0.21402860036630053
2266,2.200,0.570969030980591,-0.3224885337904693,0.09721747081464525,-0.7486950478019488,-0.17666408391072605,-0.07501744794578226,9.905077206404783,-0.0018719085998039628,0.0032407989569978404,0.0026257216634300827,0.08736481546808694,0.5653159207568327,-0.2097105836843052
2267,2.208,0.5709802782636892,-0.322483518016174,0.09721551512692855,-0.7486888846913908,-0.15181311198670597,-0.07946361101585184,9.890756521505518,-0.0011843156988031677,0.005015934649346498,0.0037078329160557936,0.09048156235681486,0.5762966639479205,-0.2154625832611765
2268,2.217,0.5709940115514746,-0.32248044545610194,0.09720465940359423,-0.7486811439197733,-0.1922873748642552,-0.08438227134680205,9.88158994844796,0.0002138304670000297,0.003749556895726543,0.004174543419844433,0.08091091722538192,0.5638072432926616,-0.2122122232832064
2269,2.225,0.5709887874943663,-0.32249471874639574,0.09721166678525911,-0.7486780701858634,-0.18323703480098694,-0.07062182727024227,9.833677122069611,-0.004645424061077152,0.0009573766806275492,-4.942852330078677e-06,0.09105484127615728,0.5672946515133201,-0.2045554143114432
2270,2.233,0.5710054892932768,-0.32249178749906504,0.09721209174892345,-0.7486665395290502,-0.15262861978382952,-0.07996309248857514,9.890739945314571,-0.002345899070948365,0.005215550358889384,0.005718593715770732,0.08809085847637566,0.5660575956650128,-0.20609823255346835
2271,2.242,0.5710093805065884,-0.3224862667552857,0.09720073690440968,-0.7486674240762456,-0.16893806918798898,-0.06173085502548461,9.857138488239137,0.0013752227331908485,0.003550176038173502,0.0021644911247206754,0.07973876898638617,0.575774558857972,-0.2015140359199215
2272,2.250,0.5710033595605802,-0.3224890377457793,0.09719653169115458,-0.7486713685800618,-0.17841711630040905,-0.07563038274217027,9.905041123242937,-0.0004739543187697503,0.001974599076073221,0.003092676214949715,0.09083077346676656,0.5684599139242276,-0.2109702154385359
2273,2.258,0.5710094914417283,-0.32248926956347745,0.09720279931814126,-0.7486657782379202,-0.1936006152169201,-0.08498687782941994,9.881559125625214,-0.003270231129097279,0.004507930864206151,0.002159589725213305,0.08752539569986617,0.5741793293794798,-0.21156266164920884
2274,2.267,0.5710164466693998,-0.32249312556708937,0.09719291880634151,-0.7486600951893495,-0.16970153202464258,-0.06199028018058303,9.857123745559448,-0.0004740403116474422,0.0019746454293407927,0.0030927953167658602,0.0888199102340646,0.5673558758798307,-0.20085174136779543
2275,2.275,0.571027696552844,-0.3224881084656741,0.09719096470957019,-0.7486539294270804,-0.1699904266138493,-0.06205358962916237,9.857118369970568,-0.0011845799088401091,0.005016535312136866,0.0037087043284660254,0.09494369446321298,0.5704639723285257,-0.2082317767689628
2276,2.283,0.5710283061677831,-0.32249533510185446,0.09719858706148768,-0.7486493618951039,-0.18317089142216844,-0.12641462023195463,9.853871870506964,-0.003957870618156274,0.0027330985963731802,0.0010773444435469316,0.09572717433968314,0.5714561307107908,-0.21590255839992542
2277,2.292,0.5710219582899431,-0.3225131504051483,0.09718989264928504,-0.7486476579361521,-0.1703580165744728,-0.06249848846238644,9.85710921244906,-0.001849312457837349,-0.0015755368221942014,0.0009279689463607649,0.08677184445415013,0.5643476935203675,-0.1989479609380207
2278,2.300,0.5710426802313568,-0.3225105803166487,0.09718910756198532,-0.7486330611917374,-0.16948450436506748,-0.09014126097883507,9.867223431329444,-0.0023463888986233936,0.00521622921575836,0.005719535489194827,0.09215101087861163,0.5681629646605534,-0.21214811404581885
2279,2.308,0.5710420176458263,-0.322508535206344,0.09719382699606928,-0.7486338349259272,-0.17090201870792002,-0.0628448880260888,9.857097593649803,-0.0021085190113002213,0.0043088349149623595,0.00014959132766567855,0.08541624280928926,0.570105798698341,-0.20652382843565426
2280,2.317,0.5710467232011704,-0.3225030035769666,0.0971825693825111,-0.7486340900688767,-0.17122540845409678,-0.06287335942514648,9.857091799622474,0.001375112084311678,0.0035502664140095483,0.002165276401673774,0.086330923155285,0.5748984696438707,-0.2155622954696687
2281,2.325,0.5710579757099341,-0.32249798586802425,0.09718061659199176,-0.7486279217661741,-0.1705567390579094,-0.09033678769660596,9.867203167467013,-0.0011848264266328683,0.005016883511964311,0.003709343126739486,0.0868208899250858,0.565465093639675,-0.21187592028996913
2282,2.333,0.5710651975410528,-0.3225000143727048,0.09717830557073283,-0.7486218389904247,-0.1822077341868557,-0.04945151518166603,9.894863740264402,-0.0018724076139898646,0.0032418037882905875,0.0026267268118220833,0.08666814557992594,0.5719156149322182,-0.21706367372581875
2283,2.342,0.5710770129850619,-0.32249322385804263,0.09718420494427617,-0.7486149852327663,-0.13118435627826136,-0.0857685257736463,9.876366298879413,-0.002582936952474671,0.006284039751406986,0.003243105255118316,0.08428824002321622,0.570466765332547,-0.213647828504581
2284,2.350,0.5710894891815457,-0.32250102270970243,0.09716774449830966,-0.7486042446624712,-0.19780910925833237,-0.05893895633233597,9.871367368703746,-0.00023856466845478157,0.0009076635758272201,0.0055704325956888665,0.08896666346633632,0.5737078795851527,-0.20815849294753896
2285,2.358,0.5710939466479412,-0.32249372821963634,0.09716424199341932,-0.7486044412364403,-0.17182965385926774,-0.09075221648347484,9.867177270519495,-2.290908519441082e-05,0.004817449745863694,0.0016992768704401037,0.08860184663922245,0.5741912949523797,-0.21051095508286582
2286,2.367,0.5711002534438192,-0.32251228818909833,0.09717577617204054,-0.7485901368631565,-0.14790290405844655,-0.0678919601462604,9.842753474416666,-0.006969693747206454,0.001358427764730721,0.004015774126323276,0.08770868360035725,0.5682614822477746,-0.20794243460524917
2287,2.375,0.5711041495437365,-0.32250676615548163,0.09716442170544773,-0.7485910173870011,-0.1974895201201776,-0.08692819655076636,9.881465280503408,0.0013750425635599079,0.0035503682578228515,0.002165995824584127,0.08886004200775756,0.5741286740838586,-0.20782745355667093
2288,2.383,0.5711073652112655,-0.32250848672866433,0.09716441161793142,-0.7485878241758778,-0.1324633291125913,-0.08641585745490654,9.876343584181049,-0.0018725680715672003,0.003242211960340884,0.002627153234917819,0.0868275819450053,0.578473826380861,-0.2080635788142099
2289,2.392,0.5711180587265313,-0.32250524028594757,0.09715460803583727,-0.7485823369021907,-0.17286105378122993,-0.09134154095248859,9.867153817416286,0.00021280740548831274,0.0037503053484593107,0.004176774371001385,0.08710735421721291,0.5797974342434896,-0.20479451700621001
2290,2.400,0.5711141183162897,-0.322506348042304,0.09715777579944387,-0.7485844547771006,-0.18344480758314421,-0.07787554203636923,9.904931886863714,-0.0018726174406605476,0.0032423662678513405,0.0026272643851918964,0.08332263603933257,0.5708622321834425,-0.21068040774761615
2291,2.408,0.5711196930752378,-0.3225083487213504,0.0971561948812257,-0.7485795448600476,-0.17443159798455937,-0.06407805656902132,9.857027826169848,-0.0018726484711330863,0.003242423490473159,0.0026273330611610284,0.08649510731725514,0.5774964265755173,-0.20980910759710583
2292,2.417,0.5711249481808081,-0.32250452939051183,0.09714889510628781,-0.7485781283658385,-0.15981461836679867,-0.05494792441586143,9.880508465093008,0.000212662413675061,0.0037504461808582335,0.004177091483935074,0.08738755616483708,0.5621719275894376,-0.21020815723253833
2293,2.425,0.5711305321122757,-0.32249368711443427,0.09716109770142155,-0.7485769553986692,-0.1602728454319205,-0.05505191099818625,9.880500465283754,-0.0028185586225003318,0.007352511616880534,0.0007671415920310197,0.08775604297821843,0.5786975857051246,-0.21219018637393766
2294,2.433,0.5711242251866369,-0.32250038293240274,0.09715834092065126,-0.7485792404301392,-0.1642247852851219,-0.10542322512491138,9.8293364200721,-0.001397834573382573,0.0012673595510308059,-0.00046646497317528893,0.09257580397772638,0.5780769630279551,-0.20804841037485564
2295,2.442,0.5711365978494231,-0.3225046591164175,0.09715831238042244,-0.7485679620318908,-0.17572662143958395,-0.06459667892589545,9.857001439231956,-0.003035282977669772,0.0034426405405881895,0.004638222937298978,0.08489516387187036,0.5767146654426052,-0.20158841761079527
2296,2.450,0.5711343577398693,-0.3225059185962953,0.09716097686859318,-0.7485687827136313,-0.16009200168050997,-0.08308004990544156,9.890596266315425,-0.0018728606064802495,0.0032427166267915758,0.0026276636867126374,0.08860664739052923,0.5750328839497918,-0.20995870163253388
2297,2.458,0.57113993322619,-0.3225079185856047,0.09715939746110008,-0.7485638720970713,-0.16036109485885275,-0.08323090681231976,9.890590638700708,-0.0018728916555092135,0.003242773877829583,0.002627732393443276,0.09367320361192628,0.5746599517426858,-0.2064123907522418
2298,2.467,0.5711386638858819,-0.32251857949817136,0.0971513897692548,-0.7485612867087331,-0.1754075890593048,-0.092542361995269,9.867097686711773,-0.001162547525393027,0.00020005665075649494,0.0020106973663814374,0.08866173692876901,0.5681496025856427,-0.20659299547951118
2299,2.475,0.5711504848785092,-0.32251178528794905,0.09715729313200112,-0.748554428458403,-0.1869821986477269,-0.05168799434780236,9.894763240017877,-0.0025832789883217092,0.006285668799785514,0.003245001855926672,0.08649807639649121,0.5686942423193806,-0.2054614353339983
2300,2.483,0.5711590321263809,-0.32251930429156095,0.09714329783071236,-0.7485464835708716,-0.16107322006768104,-0.08361418819867752,9.890575833835547,-0.0002400751217992299,0.0009079458735968705,0.005571480726522259,0.09044564279576395,0.57490903871476,-0.21064939705577476
2301,2.492,0.5711532540296271,-0.3225224999677935,0.09715624116307918,-0.7485478356317349,-0.1612688062348895,-0.08379408765504234,9.890571125078008,-0.004193229760287601,0.003802789867341657,-0.0013991832863063467,0.09081879142358165,0.5710353362120848,-0.21370761516850173
2302,2.500,0.5711618122782992,-0.32252647340095336,0.0971457354259891,-0.7485409569549667,-0.18771438825100828,-0.05216818725894035,9.894746855391915,-0.00047527426083633856,0.0019754021754298614,0.003094439071883084,0.08973390941681533,0.562531497721633,-0.21369061611672205
2303,2.508,0.5711719575130908,-0.3225121563902769,0.09714186490024909,-0.7485398867227181,-0.16186271290345647,-0.08397358289821209,9.890559901423178,0.0006644731634882959,0.006593546253766026,0.0027848217469925805,0.09136452225274126,0.5666142009716505,-0.2061114724696921
2304,2.517,0.571183672572865,-0.3225145993573942,0.09713813441371182,-0.7485303789627633,-0.17717001588712417,-0.09320562622400401,9.867059955936385,-0.0018731093237577274,0.0032431895008098203,0.002628146517855958,0.08648128695987359,0.5727065486340088,-0.2120074348631209
2305,2.525,0.571194933682961,-0.3225095779979454,0.09713618665524831,-0.7485242020646906,-0.17751214460852774,-0.09332670089562906,9.867052662773771,-0.0011857774057904592,0.005018593907786611,0.0037120635263674677,0.08721386976695956,0.5697729527159668,-0.21272387737583395
2306,2.533,0.5711945789366901,-0.3225074355424726,0.09714090019895767,-0.7485247841733041,-0.16299850669611018,-0.08427462256933839,9.890538687395132,-0.0021080200313016552,0.004310854506514865,0.00015112881181407895,0.08369282887216616,0.5712337678885379,-0.2115736054258011
2307,2.542,0.5712001574052886,-0.32250943419469935,0.09713932236525087,-0.7485198708691764,-0.1951031107914468,-0.047845938793272855,9.823324916447076,-0.0018732594982301632,0.003243368349341261,0.002628339937075764,0.08838200432672563,0.5761847842857887,-0.2125755894957827
2308,2.550,0.5711983650305802,-0.3225163636675024,0.09714705170572266,-0.748517249833275,-0.16355851112184053,-0.08467460093498604,9.89052602632789,-0.003958298195341959,0.002735885501723619,0.0010780672649044905,0.08956328472275417,0.5754909716692084,-0.21077303571580377
2309,2.558,0.5712033805768396,-0.3225201367442672,0.09713762158115853,-0.7485130205184176,-0.13954407716249084,-0.06171482553296747,9.86612775207903,-0.00047565262659669263,0.0019755914809331102,0.003094830534715012,0.08459618195230967,0.5743031746145116,-0.21032283956894796
2310,2.567,0.5712047625135336,-0.32251246402601463,0.09713576824272899,-0.7485155124361964,-0.16403583615838008,-0.08487175665633558,9.890516431492301,-2.3027476923444806e-05,0.004818589435864162,0.0017018086660991933,0.08819983390702207,0.5704920929803577,-0.21782176451033367
2311,2.575,0.5712046574601386,-0.3225214824313154,0.09713456060669848,-0.7485118635011048,-0.1791924139205968,-0.09415779003801021,9.867014394620917,-0.0025606901986129967,0.0014681913289029955,0.0015444560345988232,0.09377675672456284,0.5711591814471166,-0.21543307703614856
2312,2.583,0.5712248786952152,-0.32251710096236513,0.09712892379531278,-0.7484990512411038,-0.17946118285901622,-0.09430790358900047,9.867008076803518,-0.0011861248513170362,0.005018978840186457,0.0037128074518144195,0.08244745261607492,0.5703056268768047,-0.21187524647683614
2313,2.592,0.5712304588797916,-0.3225190988782979,0.0971273465812529,-0.7484941364184485,-0.16590134372216636,-0.057768083553763554,9.880392052337363,-0.0018734589572631595,0.0032436870567775587,0.002628711770038688,0.09181083930111247,0.5731125845557936,-0.20522536900630198
2314,2.600,0.5712447774155176,-0.3225177571065161,0.09712089778330095,-0.7484846236498409,-0.18109466448103523,-0.06705785921134874,9.856887841155777,-0.0009517651642085591,0.003951522512943548,0.006190232782474753,0.08981546259248877,0.5743151401874116,-0.21135781429928074
2315,2.608,0.571243560215723,-0.32251747837861516,0.09711776666524029,-0.7484860789956761,-0.15617518153564386,-0.07146414452764283,9.84260040394723,-0.000710293536518471,0.003043446764165917,0.0006179897321741108,0.08139850345461136,0.5586324675711473,-0.21015874093280862
2316,2.617,0.5712445975108825,-0.3225356814256748,0.0971185622430124,-0.7484773402647242,-0.14041170991124807,-0.08997483509660935,9.87620199825984,-0.004411313026487442,-0.00010649272696047302,0.002471076350982093,0.09296035275219018,0.573892949186695,-0.20782766184259777
2317,2.625,0.5712621121360665,-0.32252186332230814,0.09712409978346938,-0.7484692085571708,-0.18084468457127145,-0.09506415378947325,9.866975560679334,-0.0018965585023424643,0.00806284415793791,0.004331553563693062,0.08678083749172123,0.5774098745611961,-0.21032727251763683
2318,2.633,0.5712636118598345,-0.322517862494626,0.09710634842945427,-0.7484720911506669,-0.1822608797190347,-0.06754166641692799,9.85686304258186,0.002772056714731719,0.002282681112668926,0.0026352508194116037,0.08512622089926138,0.5691192263241185,-0.22066768341632673
2319,2.642,0.5712708695848,-0.32252738039880824,0.09711454914687166,-0.7484613863125535,-0.16758404868149476,-0.05845750178646761,9.880359600434257,-0.0051217592307093,0.0029373613373339697,0.0030891925140016964,0.08781296418852894,0.5814580775945243,-0.2126198990336906
2320,2.650,0.571282899297577,-0.3225240961771701,0.09710405593387274,-0.7484549810619511,-0.1565574197218092,-0.09965680499278165,9.852677684413838,0.00021111858159395393,0.0037513724420479323,0.004180052805134399,0.08366048667280244,0.5726945830611089,-0.21218053877823198
2321,2.658,0.5712816834220865,-0.3225238164060338,0.09710092471461024,-0.7484564359111904,-0.16814209996972296,-0.05867177341661428,9.880348848601994,-0.0007102411107176143,0.003043688010455753,0.0006183029987427908,0.09375645616492599,0.5725679448220558,-0.20624710382041087
2322,2.667,0.5712926825138204,-0.32252787216751694,0.09710202851443578,-0.7484461494587562,-0.17774527957663855,-0.07278378504956798,9.928227213576779,-0.0030371789166352063,0.0034448651011118143,0.004640238959484769,0.08373715311471472,0.5671975304281096,-0.20822927234340433
2323,2.675,0.5712868933111543,-0.3225439085455129,0.09710119097632186,-0.7484437662924677,-0.15822157635722395,-0.07259715652496156,9.84255942878465,-0.0032482153045460464,-0.00030653215742234056,0.00046000823023591115,0.08825739661041333,0.5735108444107103,-0.21173753724690283
2324,2.683,0.5712963081011107,-0.3225367895727836,0.09710837453035834,-0.7484387158065748,-0.18269609282498064,-0.09597000589400388,9.866932684029559,-0.0025839756581438676,0.006288147692807897,0.0032479607712231377,0.08522393530272346,0.5720753568859498,-0.211790129295297
2325,2.692,0.5712894068707595,-0.32254352941511416,0.09710561251812323,-0.7484414374199077,-0.1690999020708879,-0.05947698156513049,9.880327687942792,-0.0013974596684690611,0.0012683848008495865,-0.00046623459217950763,0.08881508955638005,0.5733497059549679,-0.2111730338646018
2326,2.700,0.5713045889419294,-0.32253303796774946,0.09709621355456748,-0.7484355893372211,-0.15905889521481864,-0.07301263935125306,9.842542860350687,0.0008980386804956705,0.0055269612906041,0.00526545749757485,0.08835204266793321,0.5733869991756785,-0.21154963001891183
2327,2.708,0.5713124123093158,-0.32254077812485005,0.0971122695640156,-0.7484241986253871,-0.18369249720874173,-0.09637352553997074,9.866910251602125,-0.006519605375610282,0.004206673302485767,0.0026233212430781206,0.0910009684854112,0.5744495544933328,-0.20520509380512597
2328,2.717,0.5713162810835309,-0.32254253188731863,0.09711211658624312,-0.7484205094094776,-0.17009157932438554,-0.06006183686677137,9.880307128101691,-0.0018739284651338181,0.0032446086938542375,0.0026297859320371054,0.08817593605932021,0.5758878350221145,-0.21298471078323772
2329,2.725,0.5713286630834918,-0.32254680353767096,0.09711209822511511,-0.7484092187067027,-0.18525711881082957,-0.06942746472548988,9.856794082079427,-0.0030377007409436193,0.0034453595291386967,0.004640920255859074,0.09117526316573989,0.5784991540286716,-0.2124571654827705
2330,2.733,0.5713294677335774,-0.322553948071418,0.09711902250183944,-0.7484046267568739,-0.16964752072357492,-0.0880266188464481,9.890394192607571,-0.003958573798348741,0.002737884704529085,0.001078750756880863,0.09233496665809586,0.5764191126809416,-0.2112401719845966
2331,2.742,0.571340739382737,-0.3225489231711604,0.09711707914854645,-0.7483984397500891,-0.1457319009234873,-0.06509943430156244,9.866016540576359,-0.001186844790858381,0.005020226222192799,0.003715184171099165,0.08448105654552703,0.5682656717538066,-0.2224912940958097
2332,2.750,0.571346539158201,-0.32255647220016087,0.09712140834855935,-0.7483901966715799,-0.14605213320726765,-0.06530804194061098,9.866010426418855,-0.003958623515122688,0.0027380688004754053,0.001078835262926947,0.08734629362610481,0.571566613870912,-0.20811918977072108
2333,2.758,0.5713515601438972,-0.3225602435504562,0.09711198067792062,-0.7483859613933285,-0.17146114618469352,-0.06113927721417982,9.880276847022355,-0.0004767310386050537,0.001976174786592898,0.003096323699136319,0.08656268791442477,0.5678061875323793,-0.21781576816498882
2334,2.767,0.5713598336788065,-0.32257153930531307,0.09711175501687842,-0.7483748055127653,-0.16128514056201587,-0.07482093105517776,9.842493050972557,-0.003725208697050655,0.0016702521980831023,0.0035561575990895704,0.08726536201713439,0.5668766500186355,-0.213707090711453
2335,2.775,0.5713643092745585,-0.3225642375904097,0.09710825471973675,-0.7483749899483623,-0.17285454375386644,-0.033973211815972036,9.870170846045108,-2.2993231807774956e-05,0.004819655931069136,0.0017045184988141024,0.08939193255315779,0.571753079974465,-0.21219867717035082
2336,2.783,0.571378838092022,-0.3225593640570391,0.09710511991041137,-0.7483664047289366,-0.17228796590261197,-0.061503975877074804,9.880260201035604,-0.0011870311223263963,0.00502053367955866,0.003715764888389821,0.08416664769843007,0.5660709577399234,-0.20791928985204042
2337,2.792,0.5713838601819363,-0.3225631348990107,0.09709569241645531,-0.7483621682326554,-0.17160680160473135,-0.08905258829150674,9.890351206279345,-0.00047690466670633576,0.0019763114569909955,0.003096560464157555,0.08760268370848144,0.5757759553599826,-0.21086649433767182
2338,2.800,0.5713982747106223,-0.322559953589955,0.0970971680725874,-0.7483523421157006,-0.16254520334482228,-0.075190726316952,9.842469504526134,-0.002351175142479645,0.005221599483108991,0.005727172145605844,0.08249962602949472,0.5770263732832006,-0.2090580520975431
2339,2.808,0.5713924856722206,-0.32257598725887854,0.09709633155867803,-0.7483499596840563,-0.172111586001355,-0.08938914739308737,9.890339398994477,-0.003248553412418788,-0.00030566475747369724,0.000459608898947785,0.09053068735067026,0.5731020154849042,-0.21156599672844775
2340,2.817,0.571398849127957,-0.32257224385260547,0.09708873586209453,-0.748347699989679,-0.16289153792303174,-0.07553763560851762,9.842461122002504,0.00021016035770195842,0.0037518666708887738,0.004182291219948001,0.08651126190291784,0.570947387695753,-0.20652070164234218
2341,2.825,0.57140500157753,-0.32257246019478336,0.09709501584643267,-0.7483420942282006,-0.15771495212166664,-0.08047297472231675,9.913842369849712,-0.003271535659464936,0.004514387247160967,0.0021646820137983377,0.08175924700595355,0.5740048288488268,-0.20401531039234835
2342,2.833,0.5714021740381628,-0.3225938584285813,0.09709423214126307,-0.748335130869533,-0.14848848768586884,-0.06680112944773893,9.865964062143762,-0.004179840174800462,-0.0011725949378033672,0.004948130328772078,0.08768294079633282,0.5685703970843488,-0.2058226547630273
2343,2.842,0.5714072167722314,-0.3225847780920225,0.0970985856203679,-0.7483346298511495,-0.18782675291491452,-0.09931844660079538,9.866803213228206,-0.0014201063939279462,0.006089056527051966,0.001239334771556401,0.08233966072229262,0.5775351162982385,-0.21371741960475482
2344,2.850,0.571401936816537,-0.32259322285238556,0.09709983192969725,-0.7483348594120459,-0.1490038404441327,-0.06718945439831844,9.865953655109752,-0.002561510350633828,0.0014700769564463972,0.0015452739017712777,0.08796627714597574,0.577299391401075,-0.21448640521050966
2345,2.858,0.5714058493925301,-0.3225876972691017,0.09708847868475745,-0.7483357269015689,-0.17346452596684567,-0.09036920918085298,9.89030685629244,0.001374277790764168,0.00355096151331959,0.002171534790223983,0.09522045134389442,0.5735094479086995,-0.20985320136462365
2346,2.867,0.57141449976273,-0.32258983375197103,0.09708619685492043,-0.7483284967185422,-0.16341066396306816,-0.10389642512610855,9.852522608191364,-0.0018744195388742603,0.0032456607221774967,0.0026310801526049786,0.09209594126674965,0.5682108269521533,-0.20574478115236708
2347,2.875,0.5714325758257758,-0.32258708282226545,0.09708581496440345,-0.748315929146265,-0.14984247671767414,-0.06742203794188942,9.865939367673864,-0.00235173780163324,0.00522231415263569,0.00572834960528184,0.09420563638370115,0.5606604571212453,-0.20861164907266913
2348,2.883,0.5714259366222124,-0.32259024707731443,0.09708747935211101,-0.7483194189643071,-0.17537215971977013,-0.06322950619796157,9.880195046005023,-0.0016298744760807505,0.002337361121311654,-0.002943309140493057,0.08783386657108237,0.5709487841977637,-0.2125784001179729
2349,2.892,0.5714440139334999,-0.32258749611323595,0.09708709812602385,-0.7483068499408723,-0.15046557695007057,-0.06774591449928138,9.865927665803614,-0.002351954031443332,0.005222424025967066,0.005728575285469707,0.09087932320620902,0.5652519033863006,-0.20327571564196334
2350,2.900,0.5714519348434421,-0.3226098196456027,0.09708184956144131,-0.7482918581126273,-0.19073353719379704,-0.07280543185781463,9.856665259342666,-0.004180681210984884,-0.001172163627256174,0.004948053392779816,0.0879447135265551,0.571356216621559,-0.20855927279466505
2351,2.908,0.5714632146368028,-0.3226047917398922,0.0970799093632312,-0.748285663274033,-0.17505658472226268,-0.09135489580847325,9.890269750080542,-0.001187417498570975,0.005021477838434046,0.0037175715406287217,0.08358082476574175,0.5730780843391042,-0.21125325257024605
2352,2.917,0.5714654270930498,-0.3226045415626098,0.09708813338095793,-0.748283014478572,-0.19128772676803876,-0.07319745914497734,9.856651616686243,-0.003271693888380954,0.004515434569062201,0.0021656497355304507,0.09864990788498433,0.5775309267922065,-0.20575807999843357
2353,2.925,0.5714704516426576,-0.32260831131127327,0.09707870833972519,-0.7482787747619978,-0.17572138310282867,-0.09168500955851527,9.890254905508495,-0.0004775396310486505,0.0019766972516557365,0.003097588984095687,0.08718759802081241,0.5771488220162219,-0.20626337012921495
2354,2.933,0.5714737932158359,-0.32261002653278825,0.09707925657677385,-0.7482754121247865,-0.1917722136896889,-0.07343926663107476,9.856640403189441,-0.0018746433593407174,0.003246171135941999,0.002631713890106045,0.0893003349152024,0.5817923200789091,-0.21346597655177746
2355,2.942,0.5715032542923134,-0.3225932341976077,0.09707814087406134,-0.7482602957177796,-0.15217137556659122,-0.06875707988165744,9.865894509263624,-0.0009781578285047966,0.008774168224466552,0.007902127841904673,0.0861590553278178,0.573670586364442,-0.20613451682216916
2356,2.950,0.571486891461453,-0.32260288530813314,0.097094035282759,-0.7482665698740678,-0.17783786753986233,-0.06463622672263131,9.880141870154455,-0.004878169056781196,0.0020330886278548325,-0.002484111784776452,0.08934222566276363,0.5772128393867537,-0.2155536967880605
2357,2.958,0.5714897003298458,-0.3225880624718193,0.09708075408629602,-0.7482725382864299,-0.15291110492229157,-0.06906308666896367,9.86588093339827,0.0032259571348314258,0.005125400962941121,0.0012477583117968907,0.08481127646791574,0.5762699397980992,-0.20501129811698518
2358,2.967,0.5714912773714876,-0.3225877498676092,0.09708937764551258,-0.7482703497213197,-0.17757876704651485,-0.09219329106804462,9.890217006474726,-0.003271911227054275,0.004516036949295272,0.0021660290662700813,0.08478483921639451,0.5715187515793121,-0.21320461868732496
2359,2.975,0.5715014274681504,-0.32258627822602914,0.09707173211472127,-0.7482655212732938,-0.19369478273994825,-0.07391507390211147,9.856599253085129,0.001606122138413123,0.0024828913088170493,0.004650351844031073,0.09343299450112466,0.5778173069849915,-0.20960290513644855
2360,2.983,0.5715069845041795,-0.3225881337018588,0.09707060455479469,-0.7482606233051814,-0.12766444526633797,-0.10098186441686259,9.86170109427706,-0.0018749192827935746,0.00324661039467168,0.002632050066312006,0.08448597648991775,0.5741540017316693,-0.2078280269690721
2361,2.992,0.5715063431143936,-0.32258606891104663,0.09707532847953912,-0.7482613905081035,-0.17936989879057977,-0.06493549372697949,9.88011221299715,-0.0021069679423576767,0.004314960303486428,0.00015473418300284377,0.08795904954180753,0.5736360861477527,-0.2172143656306966
2362,3.000,0.571510680637744,-0.3225859787593363,0.0970825074737098,-0.7482571850423363,-0.17878622117109602,-0.09264452154930708,9.890191036392256,-0.003272018297117633,0.004516404974249195,0.0021662824604447477,0.08618290022110356,0.5634730008082768,-0.2147707310386431
2363,3.008,0.5714975238024921,-0.32260151153428684,0.09707226002509707,-0.7482618668467838,-0.16949688740097643,-0.07882176715195845,9.842323834025523,-0.0006869702954544634,-0.0017756101583279466,-0.0010866606274389141,0.0904486515451642,0.5754656440213978,-0.20901525700093881
2364,3.017,0.5715238716870652,-0.32259182843154127,0.09707067635704542,-0.7482461226846474,-0.15484045726140314,-0.06976991564445471,9.865845868863925,-0.0016662163559013426,0.006999383190497125,0.006817167662120318,0.09095839657460497,0.5694119860817608,-0.20691778128375504
2365,3.025,0.5715424961266463,-0.3226001503854097,0.09706437647217128,-0.7482291259451898,-0.1646368321918739,-0.08393053753573719,9.913701165973452,-0.0028084366427922115,0.0023799820379873738,0.007121319737332116,0.09398890208731071,0.5750927118142918,-0.20470016880081882
2366,3.033,0.5715355756638472,-0.32260679440389345,0.0970626820529146,-0.7482317673740764,-0.17966197179805088,-0.09324186089297068,9.890169552252667,-0.0013969140460918627,0.0012698525469820624,-0.0004658695698833669,0.0883544695207946,0.5762087154315886,-0.20937392304905683
2367,3.042,0.5715457281141076,-0.3226053227297307,0.09704503750208017,-0.7482269355731461,-0.17135259304366426,-0.051753990679012395,9.832219394321598,0.0016056858193616256,0.0024828939714863184,0.004651098433915354,0.0872558664233529,0.5747971590526282,-0.207213276633361
2368,3.050,0.5715526915474312,-0.32259797226688997,0.09705360720264934,-0.7482236740461585,-0.15590059418241814,-0.07013725479821485,9.865826568690197,-0.0025850358136538677,0.006292648354638566,0.0032535707024161633,0.09031745107563856,0.5716651314581331,-0.207647571597887
2369,3.058,0.5715577182408034,-0.32260174094411975,0.09704418534929012,-0.7482194314164013,-0.1553015464796115,-0.09774934829490305,9.875905189692595,-0.0004783112150243243,0.0019772286887321843,0.003098513771766763,0.08793632212930924,0.5722231332667816,-0.21020409938481396
2370,3.067,0.5715677148227967,-0.3225983103938722,0.09703526516202159,-0.74821443104113,-0.1564800943533121,-0.07026539047907067,9.865816481682334,0.00020862433573905337,0.0037529546706499763,0.0041855527110260795,0.087243831425752,0.572570737826077,-0.21374983685270485
2371,3.075,0.5715597098026798,-0.32259574622351667,0.09703057329807258,-0.7482222600900196,-0.1706827958644348,-0.1068666656586637,9.85236754048669,0.00045546299081374465,0.002844051956259967,-0.001390453564250502,0.09317417756588656,0.5707862492400105,-0.2090313075393528
2372,3.083,0.5715755488323794,-0.3226112099075012,0.09702386279411164,-0.7482043633042329,-0.182120570958617,-0.06599350350309582,9.88005488189015,-0.0034960953005058752,0.0006049269417446515,0.006034760307671117,0.08877499745285126,0.5759356973137144,-0.20691085388399796
2373,3.092,0.571579497547281,-0.32259282588687427,0.09702628892378203,-0.748208958732517,-0.1973319440317316,-0.07525359095810877,9.856516979736535,0.0004326357736210771,0.0076655316798097985,0.0003179412401754971,0.09497423137641828,0.5732751195135466,-0.2130556495096775
2374,3.100,0.5715879441847667,-0.3226041415185424,0.09702663996531438,-0.7481975815750527,-0.13239593051478468,-0.07497833047362318,9.851551900971522,-0.0037277123569581056,0.001673450086430417,0.0035573133924219494,0.09243197997193515,0.5765936132115946,-0.21593206462495343
2375,3.108,0.5715997994850596,-0.3225973300302673,0.09703255964742881,-0.7481906937768279,-0.18317816756150312,-0.06650218319682644,9.880031920597448,-0.002585232771970298,0.006293392772153603,0.0032543407227509213,0.08254511406512093,0.5684599139242276,-0.2067968528451844
2376,3.117,0.5716045823856334,-0.32259910856239893,0.09703159950275425,-0.7481863973960154,-0.17227831786775225,-0.1076750960923086,9.852330968458944,-0.0018754224909081373,0.003247622659261897,0.002633063158111567,0.09109080714949833,0.575762593285072,-0.20882578637629176
2377,3.125,0.5715982517384866,-0.32260405987591834,0.0970366921527842,-0.7481884385214238,-0.1689446704396758,-0.05773639281984415,9.9035511765264,-0.002793537156722934,0.002540400878434953,-0.0009316750975067949,0.09419133339648693,0.5700178501820091,-0.20592643479373396
2378,3.133,0.5716112575188594,-0.3226101048623936,0.09702928244889243,-0.7481768566761722,-0.18307348325090214,-0.09454339146786185,9.890094635039903,-0.0016443464418544487,0.0021791926163398094,0.005110664050368502,0.09072288230627802,0.5638072432926616,-0.2171543631963858
2380,3.150,0.5716082839276367,-0.32261130741245314,0.09701516931083867,-0.7481804401336084,-0.15163612230464413,-0.06691465339121523,9.877533575284815,-1.1487881178721523e-05,0.002410863688496594,0.0008545025655417409,0.09113327315147245,0.5711964746678272,-0.2147114198764187
2381,3.158,0.5716253400411498,-0.32262326144094855,0.09701143134083502,-0.7481627389741138,-0.18456576574113068,-0.06726548767103738,9.880000928583646,-0.0037281163489562602,0.001673875197208589,0.0035575283911205855,0.08628362337396585,0.566985736676746,-0.20425903686277744
2382,3.167,0.5716320424137259,-0.3226345454366374,0.09701179653002034,-0.7481527046738687,-0.17434284310315273,-0.08106709118382457,9.842220949893507,-0.003728160092064848,0.001673955775597959,0.003557625055107641,0.084100746552209,0.5687209664692018,-0.2118491832162422
2383,3.175,0.5716397084220258,-0.3226400996276895,0.09700596931553147,-0.7481452076866969,-0.18393742529186788,-0.09527402529737555,9.890071593616838,-0.001644602361177401,0.0021793923677563597,0.005111034149766086,0.0876229975523702,0.5698102459366775,-0.21353977485575987
2385,3.192,0.5716503668648528,-0.3226329967281233,0.09700876062607568,-0.7481397649151548,-0.16483289575177526,-0.07934335095607101,9.889670385274185,-0.0016475833276404274,0.004670184229138068,0.0019386855971064959,0.08383902677640277,0.5707369904464,-0.20531340469522633
2386,3.200,0.5716569818278068,-0.3226310147849439,0.09699308207877053,-0.748137597942532,-0.1502377226709815,-0.08590974810156378,9.827959903162963,0.0016045175067335026,0.0024829373026370137,0.004652945031505178,0.09136329886312167,0.56862105237997,-0.21208384547785686
2387,3.208,0.5716557803530049,-0.3226307246314524,0.09698995240810354,-0.7481390468653905,-0.17027286338065234,-0.0863632154256594,9.913585071756696,-0.0007097643818240906,0.0030462684811236665,0.0006219530059945722,0.0858715265093192,0.575750627712172,-0.207790811645959
2388,3.217,0.5716651621308557,-0.32261619398117863,0.09698688414115694,-0.7481385420439124,-0.17609222520974344,-0.0814990836409859,9.84218623934908,0.0006639084804068378,0.006597897536908441,0.002797560386456714,0.09054208749731626,0.5727917041463194,-0.20828703008346294
2389,3.225,0.5716729998748017,-0.3226239152223011,0.09700296088761386,-0.7481271390076789,-0.18690636712726208,-0.06823613724334232,9.879950272173595,-0.006521857888156911,0.004215697814034707,0.0026262029447812504,0.08961898918557099,0.5779798419427444,-0.21391877503489656
2390,3.233,0.5716781676119154,-0.3226275578887192,0.09699401139352107,-0.7481227795759451,-0.16193211396665158,-0.07289074542572292,9.865709453415628,-0.00047922898183962344,0.001977791766924955,0.0030997022656766844,0.08823340613813124,0.5647459533752841,-0.2079861118009133
2391,3.242,0.5716888948819496,-0.3226243050892881,0.09698422489815234,-0.7481172537478428,-0.16124838476860304,-0.10039051642824694,9.875783388149385,0.00020756058390583509,0.0037536488738180774,0.004187704244076671,0.0928213957363736,0.573496085833789,-0.20484720945533597
2392,3.250,0.5716943552030989,-0.32262617489780504,0.09698353569859235,-0.7481123640891948,-0.18769119215921407,-0.06858872897586091,9.879932951082338,-0.0018758664761002477,0.003248567569200605,0.0026340483759852797,0.10147487407240742,0.5758477487973827,-0.20829031620734936
2393,3.258,0.5716942587499547,-0.3226351803786376,0.09698233902372955,-0.7481087092207057,-0.18696695610729164,-0.09626199994536523,9.890005218835425,-0.0025627046903789,0.0014727926508793453,0.0015460801140517746,0.08629801898576031,0.571788976693165,-0.20585862286060622
2394,3.267,0.571700472522045,-0.3226279176619968,0.09697920941259164,-0.7481074985621141,-0.13768309981249063,-0.07761725873261632,9.851458989361493,-2.294037257168629e-05,0.004822378254100459,0.001710409556992421,0.08750683418771978,0.5710712329307848,-0.20725773552735313
2395,3.275,0.5717248007613458,-0.32262921810706446,0.09697255498374845,-0.7480892081817168,-0.16328715647287587,-0.07332621858164698,9.865683892646127,-0.0021251072725700817,0.004158107288073727,0.008211834991644027,0.09484192671035702,0.5765281993390522,-0.20354932343838486
2396,3.283,0.571707402672148,-0.3226350834106492,0.09696271275380833,-0.7481012505121836,-0.17831085605792024,-0.08248537112369482,9.842138076682486,0.0011662607159191633,-0.00020217497438594913,-0.0020118666459815796,0.09126206005238847,0.5676183249268156,-0.21174211955167588
2397,3.292,0.5717260346810101,-0.32264340360200167,0.09695642659760449,-0.7480842377175636,-0.16262676664463752,-0.10091980694226164,9.87575539154796,-0.0028120190202388985,0.0023824382976742886,0.007123841578085072,0.08639445040306078,0.5742285881730904,-0.21000894858594393
2398,3.300,0.5717326656512863,-0.3226324725684706,0.09696856282687244,-0.7480823113100061,-0.18917874550975122,-0.0692764948862192,9.879899782485403,-0.002815801173365425,0.007364324539965022,0.0007793217784088229,0.09291239819353837,0.5702789027269833,-0.20955103585653986
2399,3.308,0.5717428276725157,-0.32263100048798277,0.0969509232236719,-0.7480774659186286,-0.16343866430761947,-0.10119220891751081,9.875739200886228,0.0016036393651657768,0.0024830903699778755,0.004654283248852978,0.08512327174640315,0.5710859915077061,-0.21524631663295984
2400,3.317,0.5717454910429383,-0.32264008976284114,0.09694879404639768,-0.7480717861828803,-0.18975035288311878,-0.06935669147670563,9.879888256712345,-0.0025628434542066068,0.0014732166635746792,0.0015461716333777526,0.09113443694455006,0.5666662527692824,-0.21579455370645675
2401,3.325,0.5717510927888022,-0.3226420741070282,0.09694723141406253,-0.7480668514456945,-0.15931918792225622,-0.07878932386232347,9.937048901274578,-0.0018760787266139175,0.003249134636429135,0.002634590979436143,0.08467109606247959,0.5778799278535126,-0.20800321873788805
2402,3.333,0.5717498518394628,-0.32264162327721296,0.09694434419320788,-0.7480683685195803,-0.1798289595775266,-0.08313684189542164,9.842104974744606,-0.0007096472805430878,0.0030468705623744007,0.0006227051839146853,0.08589426720606937,0.572606634544777,-0.2082883851941921
2403,3.342,0.5717435248606891,-0.3226465684884541,0.09694943725671955,-0.7480704112836611,-0.1652018036353112,-0.07416067539644518,9.865645779852587,-0.002792850885526724,0.0025420131611539757,-0.0009314235936891298,0.08772846185999728,0.5716412003123332,-0.209531334067765
2404,3.350,0.5717495925982339,-0.32263174098941044,0.09694770471343893,-0.7480723933020732,-0.18043354542215514,-0.08336661417782328,9.842091966944022,0.0006637627266081471,0.006598736235971655,0.002799824128303925,0.0815249494851203,0.5686717076755913,-0.21153586564563925
2405,3.358,0.5717574338684568,-0.32263945781948067,0.09696378702756257,-0.7480609875400417,-0.1651147711498596,-0.10197944664515654,9.875703223443278,-0.006522429779406156,0.004217888749381363,0.002626779678065025,0.08721328122829487,0.5743165366894223,-0.21543865680963967
2406,3.367,0.5717488104864724,-0.322656889849206,0.09695588183492665,-0.7480610844829138,-0.16613424975707378,-0.07482583176075726,9.865625099120779,-0.0018533333474348172,-0.0015735685244593577,0.000923334162874233,0.08408760735807244,0.5735481376314208,-0.21024710276734504
2407,3.375,0.5717601113414822,-0.3226518542263621,0.09695395317259903,-0.7480548689817293,-0.12527930205577675,-0.09770324192062652,9.885018835795233,-0.0011896103535451402,0.005025256309450519,0.0037236311453089305,0.08806879894287051,0.5788186379361352,-0.2018002512903231
2408,3.383,0.5717601704826412,-0.3226365261978129,0.09695502676496223,-0.7480612957490014,-0.17714017881494365,-0.061470684143265085,9.90338550334463,0.0006636995100592688,0.0065989244722014576,0.002800492099170907,0.09445311276883515,0.5705251966950363,-0.20540670647654696
2409,3.392,0.5717663417102994,-0.32263672734807847,0.09696132117435953,-0.7480556763032185,-0.16721610446744042,-0.07506858755645994,9.86560497821735,-0.003272822147518799,0.004520765634661092,0.0021694302160380407,0.08744984009661544,0.570344316599526,-0.2203962224034526
2410,3.400,0.5717767912354114,-0.3226297751033732,0.09695565391234924,-0.7480514222937571,-0.16760141735761747,-0.0752013631432426,9.865597428448865,-2.306254464859246e-05,0.004823145586704177,0.0017120206648679824,0.08859946609865117,0.5784498952350611,-0.21214384791216764
2411,3.408,0.5717886261191774,-0.3226358181657675,0.09694780594253653,-0.7480407868560233,-0.167891466808739,-0.07526524371301627,9.86559200908732,-0.0016470440091547038,0.0021808440439672456,0.0051128504755695164,0.09432665345407437,0.5650429026389584,-0.21054227446136595
2412,3.417,0.5717910396762691,-0.3226246606656566,0.0969493803564299,-0.7480435501525337,-0.1682246828268171,-0.07534028624181564,9.865585760819082,-0.00025251605683898197,0.005892111844231845,-0.0007654355914727672,0.0870970582671025,0.5730541531933043,-0.21621212431943573
2413,3.425,0.5717982772712161,-0.3226470202837495,0.09694383444329557,-0.7480290925994243,-0.17880786284199618,-0.06202689261754608,9.903352064514229,-0.004187367359351753,-0.001168547393629301,0.004947025097749027,0.083505328759033,0.5717664420493757,-0.213031306486287
2414,3.433,0.5718038131535532,-0.3226469799595678,0.09695021207220365,-0.7480240517290747,-0.14332211229312367,-0.08020095629870488,9.851357869703754,-0.0032729189276392147,0.004521225319689591,0.0021698229369998554,0.09233080075774393,0.5781142562486655,-0.20853483186056965
2415,3.442,0.571802617896594,-0.3226466855641732,0.09694708349895664,-0.7480254978689577,-0.16887223023889525,-0.07598328011638682,9.865569765790488,-0.0007096819857841044,0.0030473805291775535,0.0006234639016637541,0.08987655634527716,0.5731020154849042,-0.21123652073423582
2416,3.450,0.5718018856249327,-0.3226573326354901,0.09693876886385186,-0.7480225426973995,-0.16900665672693338,-0.07605856829864976,9.865566883462796,-0.0011670007003370482,0.0002025088591344303,0.0020120422208269777,0.09121715391330111,0.5739196733365162,-0.21454488571905359
2417,3.458,0.5718080599527804,-0.32265753231101196,0.09694506431051485,-0.7480169208793586,-0.16920216727301984,-0.07623813528634987,9.86556214708416,-0.0032729918213992523,0.00452141584558804,0.0021700197235177245,0.09368031866513649,0.5709980429913742,-0.21453909765963558
2418,3.467,0.5718268096019669,-0.32265480875045593,0.09693225540646898,-0.7480054224886732,-0.13035558572934308,-0.04413199719560173,9.864825246416778,0.0002061348902070593,0.0037544897056671213,0.004190438625822755,0.0936629739004838,0.5681615681585427,-0.20751814487843995
2419,3.475,0.5718449160989525,-0.3226520484882138,0.09693189779943964,-0.7479928172964901,-0.18476486610128867,-0.08555067160356822,9.841992865415252,-0.002357293241459711,0.005228715768628528,0.005737085166650135,0.08988609825134876,0.5722618229895029,-0.21718752067177458
2420,3.483,0.5718368731450718,-0.32265866607004956,0.09691752744399466,-0.7479979736574872,-0.14488478829851312,-0.08086895240789847,9.851329549465476,0.0011671535736194455,-0.00020261403856312692,-0.0020120912568261616,0.09235174945258752,0.5746852793904963,-0.2079505188042988
2421,3.492,0.5718566499773365,-0.3226634195066651,0.09692696132956015,-0.7479795811092587,-0.18516754112048406,-0.0857754699928903,9.841983341728477,-0.005607407813701569,0.004927071802531426,0.006194495405582366,0.08028314394859039,0.5728704800937726,-0.22051397260333183
2422,3.500,0.5718613972741872,-0.32265227878557046,0.09693950386723829,-0.7479791319897011,-0.1550864326838193,-0.0953994106665956,9.89915239747057,-0.002815496356007493,0.007366980708751681,0.0007821818968144664,0.09498446772998671,0.5774950300735067,-0.20869354903465462
2423,3.508,0.571860735466012,-0.32266306341251655,0.09693045522728151,-0.7479761584375231,-0.1562939790351253,-0.06806327714613096,9.889079423974989,-0.0011672901100102237,0.00020264981972394687,0.002012125488541335,0.08868873615045132,0.5774710989277065,-0.20871028087066482
2424,3.517,0.5718590688756048,-0.32267181425243135,0.09693082266663784,-0.7479736099949919,-0.17210361550416506,-0.049822016443772196,9.855453012738598,-0.0025635076673543424,0.0014743747211431173,0.0015466243418829262,0.08614349592294572,0.5733975682465677,-0.20345179699430227
2425,3.525,0.5718589765433941,-0.32268081528082815,0.09692962997204155,-0.7479699520902733,-0.1817276425551685,-0.06404173149181218,9.903286091804683,-0.0025635242983476536,0.0014744053418527174,0.0015466610661987233,0.08106849534988683,0.5698355735844881,-0.21244209495412117
2426,3.533,0.5718560155290338,-0.3226800729393231,0.09694000432531487,-0.7479711916862436,-0.17157979236293305,-0.07776660325549928,9.865509152341653,-0.003273192752407096,0.0045222069164117746,0.002170777135651065,0.0826954579433317,0.5731034119869148,-0.21301103128511095
2427,3.542,0.5718741253061658,-0.3226773120521604,0.09693964928410118,-0.7479585827362207,-0.15624742592362603,-0.09638837427723639,9.89912455948278,-0.0023579157492576463,0.005229201042233479,0.005738177688678814,0.09249128172281701,0.5750955048183131,-0.21472888445540447
2428,3.550,0.5718715764602885,-0.3226693541793844,0.09692667169109581,-0.7479656464204557,-0.17233775378020605,-0.07798067381872148,9.865494250682968,0.0025405240974146967,0.003349287964086677,0.00016716082068067643,0.09622261638190972,0.5747598658319176,-0.21111986840380653
2429,3.558,0.5718913558945833,-0.32267410581730516,0.0969361096337308,-0.7479472502370307,-0.18752339521880643,-0.08720472353252477,9.841926176356132,-0.005608276454389896,0.004928087830073538,0.006195398921612066,0.09662041025934219,0.5753523678572554,-0.20490287934168974
2430,3.567,0.5718905116917051,-0.32267758168316757,0.09694824159351555,-0.7479448237457277,-0.15819841872742257,-0.06940019119291176,9.889039850385844,-0.004188412633144843,0.0038158492388467853,-0.001396300701181849,0.09399786209684348,0.5765176302681628,-0.21010960182333854
2431,3.575,0.5719018233936767,-0.3226725428334368,0.09694631747900463,-0.7479385977656539,-0.17340531640928336,-0.07872088696726749,9.86546966547837,-0.0011907632712855705,0.005026778006215464,0.0037265304351901322,0.082185084705062,0.5743418643372329,-0.21510975422782885
2432,3.583,0.5718988382147779,-0.32267375810337223,0.09693608256903005,-0.7479416826038006,-0.1588451519783823,-0.06963789096943256,9.889027811388916,0.0006864772328010124,0.0017760304823007816,0.0010898999729221735,0.08103800474897163,0.5741047429380586,-0.20707540807285332
2433,3.592,0.5719055886036192,-0.3226721698861462,0.09695023684793758,-0.7479353715930562,-0.19924295074263976,-0.07451559399525166,9.87966382076623,-0.004669569563631454,0.0057949542395116386,0.001705945964765747,0.08478663121830105,0.5718037352700863,-0.21428650529182888
2434,3.600,0.5719030661040666,-0.3226732716607518,0.09695207147359383,-0.7479365872675932,-0.1604171617403164,-0.04256618123296569,9.878952607181384,-0.0018773943953485643,0.003250925515043095,0.0026368649060027815,0.08740201137317348,0.569498538096082,-0.2047522363921643
2435,3.608,0.5719018759509138,-0.3226729744901352,0.09694894343034972,-0.7479380309793411,-0.158907808110889,-0.09767244404538503,9.899069623452622,-0.0007096724816673568,0.003048156902449901,0.0006246680438218978,0.08697846140746478,0.5737718969556845,-0.21536213830970877
2436,3.617,0.571922075878492,-0.32266639266306624,0.09693387170868124,-0.7479273779480238,-0.1601043095200706,-0.07014898035966328,9.889003893899597,0.001119761574870704,0.0044617740097883385,0.007760209412386282,0.0857534453075524,0.5739583630592375,-0.21779424573827869
2437,3.625,0.5719304532112266,-0.3226851814573862,0.09694404619234323,-0.7479115470864668,-0.1751873151332377,-0.07947919793533319,9.865432102898072,-0.0069820754172421114,0.0013770569179364627,0.004015964602427105,0.08757035479336958,0.5726798244841875,-0.20496073499245318
2438,3.633,0.5719190437920924,-0.3226839780194835,0.09693289016845567,-0.7479222369210925,-0.1613520660684131,-0.04309038016157629,9.878935108897222,0.0018543103648952358,0.0015731404527991124,-0.0009221212671343204,0.09318915507421979,0.5733243783071571,-0.21117246045220067
2439,3.642,0.5719314555041152,-0.322688235059085,0.09693290544655966,-0.7479109071280389,-0.17551750181550713,-0.07973395626050585,9.865424177487183,-0.0030453800041314394,0.0034541648691581205,0.004649496406312977,0.08156752803805246,0.5714308030629802,-0.20656683181818536
2440,3.650,0.571938952441336,-0.32268271641900254,0.09693304062447218,-0.747907537627517,-0.16015168375880523,-0.09830919390585045,9.89904327488544,-0.0011910865496435673,0.005027392751866675,0.0037275556895163516,0.08843772207379433,0.5741167085109586,-0.20920863611722593
2441,3.658,0.5719439933372661,-0.3226864806292674,0.09692362863230844,-0.7479032784506731,-0.1770374443661702,-0.05246384019624606,9.855351909513107,-0.0004815508614644933,0.0019790788060187465,0.0031026840396754306,0.08665980713709616,0.5775843750918491,-0.21490933982658966
2442,3.667,0.5719527660014709,-0.3226810493471266,0.09692303831341967,-0.7478989895029944,-0.17644950416209162,-0.08002945463462119,9.865405159503387,-0.0011911459751223973,0.005027573112002033,0.003727762751549489,0.08425775606442695,0.5724574616619346,-0.2050247952744883
2443,3.675,0.5719589482242368,-0.32268124277106425,0.09692933884026898,-0.7478933616378307,-0.17684409629045647,-0.08020863903509519,9.865396638985501,-0.0032735880052776585,0.004523952804523316,0.00217211363022608,0.08669400757703434,0.5766534410760946,-0.20507243989163507
2444,3.683,0.5719605936107727,-0.3226954741350021,0.09692887479591826,-0.747886023107797,-0.1622216756575362,-0.07138979192373965,9.88896050668967,-0.0035043266142690526,0.0006092381677615796,0.006037213150139735,0.09156641133554293,0.5731632398514148,-0.2095097037558598
2445,3.692,0.5719531736909867,-0.3226911122308469,0.09693203076169309,-0.7478931705828326,-0.16241770078715378,-0.07156997720723932,9.888955986827368,-0.0009373211103006574,0.004117953505670171,-0.001852506853843427,0.09283151953898401,0.5703907823891151,-0.21133977630789377
2446,3.700,0.5719755565989906,-0.32268856828794784,0.09693054648958736,-0.7478773426884784,-0.17763916970216792,-0.08079332808767696,9.865377583713968,-0.0023595093043468195,0.005230929867346865,0.005740722334671462,0.09813942873788248,0.5691656921137078,-0.21545512391990743
2447,3.708,0.5719680931538264,-0.3226970741696365,0.09691992886369012,-0.7478807566219293,-0.15260787211274335,-0.08527625394879208,9.851175771380968,-7.635493799729166e-16,1.0652286344670083e-15,1.4303337160515017e-15,0.08849633601930526,0.5652800240381327,-0.21506221001141396
2448,3.717,0.5719869692461382,-0.32270002218882315,0.0969130221213894,-0.7478659430909058,-0.16315610111723922,-0.07187208542298842,9.88894164046257,-0.0018777521755629707,0.0032518093415548777,0.0026377979351059322,0.09398651490461347,0.581629785121156,-0.20958940797894543
2449,3.725,0.5719920120695239,-0.3227037857409866,0.0969036110115434,-0.7478616817099382,-0.1529590467888754,-0.08544484926043408,9.851168864194172,-0.0004818759294204607,0.001979282857378654,0.0031031507903265558,0.0917533295521372,0.5748956766398493,-0.2075104357803548
2450,3.733,0.5719904347224368,-0.3227014887922833,0.09690974593559394,-0.74786308430085,-0.13838503843590297,-0.07646079898396624,9.874736594183679,-0.0021053942591084313,0.004321349065815024,0.00016015384487978143,0.09395651357565689,0.5694732104482714,-0.20584991629380295
2451,3.742,0.5719829722575309,-0.32270999418515633,0.09689912789144291,-0.7478664975210049,-0.17951580575875853,-0.05374099982701413,9.855300195816396,-2.5337804770986243e-15,2.9781678425461204e-15,3.166005868929234e-15,0.08421459561495598,0.5719634772238181,-0.20945226218692312
2452,3.750,0.5720064748543812,-0.32270741089239013,0.09690967997254868,-0.7478482691077198,-0.1789236012349544,-0.08144136159913566,9.865349044785095,-0.0049240989933524975,0.006707200294770889,0.00728851647555309,0.09372527775863988,0.569498538096082,-0.20793717100287995
2453,3.758,0.5719979161554226,-0.32270661912686216,0.0968971224858826,-0.7478567841101134,-0.1644337081312361,-0.07247645513554042,9.888916067643207,0.001854760682186447,0.0015729115106436087,-0.0009216139151294944,0.0851855888888111,0.5678660153968792,-0.2091526500597502
2454,3.767,0.5719921589290262,-0.32272432766764797,0.09688872355456758,-0.7478546340721193,-0.17926612403516398,-0.08156277753538167,9.865341821778662,-0.001854760682186236,-0.0015729115106445117,0.0009216139151369136,0.08652439445492847,0.568398689557717,-0.21137912844006412
2455,3.775,0.5720029075205098,-0.3227210719321349,0.09687894772622774,-0.7478490843790051,-0.14014285495412668,-0.04942940905496854,9.864665937982375,0.0002042996229841337,0.0037555331366848845,0.004194293146114443,0.09039050694523405,0.5747120035403177,-0.21455791734935062
2456,3.783,0.572011127714092,-0.32272125796838824,0.09688453393503534,-0.747841993011054,-0.17970012219282291,-0.08174820984895104,9.865332391812792,-0.0032737679198813633,0.004524959926876688,0.0021729407076208672,0.09004485345318314,0.5692029853344184,-0.21198783347507788
