packet_counter,timestamp_s,q_w,q_x,q_y,q_z,acc_x,acc_y,acc_z,gyr_x,gyr_y,gyr_z,mag_x,mag_y,mag_z
45222,0.000,-0.9971674111712034,-0.0019062297655731912,-0.018592150846685866,0.07285500884012944,9.60708030646216,-1.5196841527504423,0.9417242562212037,-0.01072773528562403,0.014293885653274082,-0.0034948839194292557,0.7015414759298948,-0.35549670536630557,-0.4598049862049139
45226,0.033,-0.9969869295136848,-0.00771476370962038,-0.02285419700090923,0.07372401562057403,9.511124886683033,-1.4883096694960656,0.9287193673710133,-0.04135840701101186,0.2672234608170866,0.023113030888859538,0.6985603536849313,-0.35423056539116443,-0.46399115184525436
45232,0.083,-0.9966419459716368,-0.014080469682692665,-0.029890570977608423,0.07492079597826606,9.859768910923195,-1.2532147444599857,0.8478998965274914,-0.009767349537315225,0.38244708704351954,0.05308506547041893,0.7097374748603593,-0.36012671295780935,-0.4443886164397931
45240,0.150,-0.9959363569832914,-0.024086833450099602,-0.0460948496103272,0.07352456822449518,9.671617063113116,-1.3300226593962894,0.43472562689291183,0.08039190803648659,0.5333618074319617,0.19527449026912935,0.725574564050526,-0.365704529632426,-0.4042870222949875
45252,0.250,-0.9940044616678402,-0.04597156493212254,-0.07916911061076215,0.05978291835650194,9.258865325885004,-1.2771548399801413,0.2537568189764947,0.333893342264732,0.7154662548022586,0.2843990963875328,0.7412054960681566,-0.3984777717388401,-0.34531064779002685
45254,0.267,-0.9935999026472239,-0.05018840619960587,-0.08473086069317848,0.055326653511339474,8.806605743227133,-1.0077391675778435,0.3508822949184462,0.5598518337079218,0.7450183101875202,0.28819642185028077,0.7377990378256224,-0.4178223637068112,-0.32686540499293665
45303,0.675,-0.9769374367723306,-0.14129860598518593,-0.15441487718428218,0.042237356492984185,9.421586143470547,-0.6555175058202664,1.1018963765163532,0.15357205223437198,0.5502438978633798,-0.0065388330264879255,0.7653650551598595,-0.4781076056210197,-0.1348923626361546
45315,0.775,-0.9728578642520194,-0.13745285739667826,-0.1773420857312886,0.056604527954619045,18.647441754034908,-2.752143339552497,-1.1078583421602417,-0.3925974430018362,0.3168347402802332,0.26764710993290763,0.7822167248000551,-0.44438288387058333,-0.10488396871422143
45354,1.100,-0.9824451493034697,-0.0691612748078438,-0.16502131030998732,0.05278459832765397,6.202875497479098,-1.9586888117536017,3.0813507855452236,-0.10958264209713588,-0.36467598820419045,0.20136770575619667,0.7856671392261152,-0.41499665914663003,-0.1944773555858234
45363,1.175,-0.9860330404009713,-0.0910169367970787,-0.13245879634066415,0.043696999046565,30.776237793485578,-4.671637854730615,-5.3294105056316,0.46123578720857866,-0.18637005355500103,-0.9496495054601447,0.7598514055528347,-0.43501016030260536,-0.22167229711705935
45369,1.225,-0.988275605461741,-0.10905120203116382,-0.10615471861616863,0.012261268299400111,13.882479222853421,1.2591286671624398,6.268962888129053,1.5250594422237702,-0.37990625907352404,-0.8757546465997699,0.7174292258604089,-0.4904634426791619,-0.23628401329639348
45371,1.242,-0.9888280930418598,-0.1059339511799584,-0.10406055922746033,0.012976918427352475,0.8960200053959332,5.286780194561545,17.16585936671787,-0.12227145394171018,-0.42527349106104906,0.05195265810642964,0.7087096564169524,-0.48749661041981895,-0.24045402299128094
45373,1.258,-0.9896826879739196,-0.09525174399846326,-0.10582311738137898,0.01602342715077378,-4.651037676901461,0.23431937923389345,7.789404851353417,-0.6972793213211973,-0.7235601288878265,0.8943626835250346,0.7157436888584915,-0.4848963226295787,-0.23673166442779417
45375,1.275,-0.9905908221402989,-0.08441779879110528,-0.1064594633065773,0.01642683813602617,-1.1895659222924269,-6.430577105590039,-0.812479756029134,-0.41064978155890225,-0.8833968309097506,0.8812712340221587,0.7189397262174877,-0.4690211230699693,-0.25984960261895546
45376,1.283,-0.9909571362790417,-0.08133920131357711,-0.10559089900593734,0.01544184038346938,4.622733504551488,-7.416979251936893,-5.7049081921211195,0.09065619249912292,-0.7067971611141581,0.4006382921043993,0.7165465808468874,-0.47004763661807375,-0.27132742121086295
45377,1.292,-0.9912001367634682,-0.08081818889541403,-0.10397481478843265,0.013414436755180765,8.318458108734896,-5.215906937584313,-4.945888291338086,0.46663365492521713,-0.43111011499819235,-0.07782348201894025,0.7091042695967376,-0.4679034519158087,-0.2591140198117722
45378,1.300,-0.9913773970531699,-0.08226387321840856,-0.10135058471281974,0.011470429528002382,9.95914376755727,-1.6036117985193568,-2.2477903966772304,0.6320806215246437,-0.25372478369124296,-0.5520040174118832,0.7100041947713044,-0.48799374349189717,-0.26695620237003725
45381,1.325,-0.9921987317216326,-0.08800935714765047,-0.0878295606934731,0.009055279831839642,5.926494503239405,4.721768979093028,2.9125669542366643,0.4024462510216858,-0.4539887951171531,-1.0283037770464263,0.7047447955731957,-0.47460261030549533,-0.2759477040065461
45383,1.342,-0.9933888570938761,-0.08606790220646092,-0.075196961430667,0.01078479499557473,1.807679209930078,10.220843978881804,4.356794368171147,-0.11244657711718638,-1.1961640263991977,-0.9784901100213118,0.6915905316384429,-0.4847336441515026,-0.29941694979761246
45385,1.358,-0.994452588644355,-0.08072286808908864,-0.06581765844183722,0.01469364975922062,0.8562636796795869,6.613553697971543,4.390684612580795,-0.5089670154091175,-1.1839144915842894,-0.49272238460529283,0.6909955329248031,-0.4756541876645763,-0.31914255293464083
45393,1.425,-0.9968901112625692,-0.06381802264569152,-0.022003521736405456,0.04065969851944499,-5.072203192927736,0.6574343029936185,2.651621306625897,-0.7631400244522322,-1.1786422504161138,-0.7874344975558122,0.6710010017267053,-0.42587019462638714,-0.3835495891084065
45400,1.483,-0.9929605770760572,-0.10604665515510464,-0.05255413083352785,0.004632778381369379,23.921241027908042,-10.461374083785483,-5.585532286134207,1.4155036201436126,1.6565230919275422,0.06487336722430749,0.670446825084425,-0.49889745480187664,-0.30487556991033465
45406,1.533,-0.9910411563130633,-0.08261018701677728,-0.10197084418473525,0.02479779084863236,27.779886952600915,14.318809602154536,-2.958177159544709,-1.1956738836380731,0.7927689303479201,1.8396312940612987,0.7145626640057207,-0.450602946935044,-0.2595767511274988
45408,1.550,-0.9901004348082353,-0.08033795038944642,-0.10728469270038893,0.04167658133711845,16.682158253196217,1.6191498715567318,-0.42181857334739165,-2.0692708631728,0.5435478823307744,0.1421181448718674,0.7407411733351539,-0.4251117268195106,-0.2411211739345327
45410,1.567,-0.9891332858979958,-0.08033580945719329,-0.11138959119641383,0.05247722763815542,10.883800160764045,-10.531620907450705,1.9115462890931036,-1.2830176724423454,0.532320923933859,0.04386643626898616,0.7450201682219185,-0.4087930348418379,-0.23617140801056632
45411,1.575,-0.9888031375227777,-0.07913781609571661,-0.11321943084913627,0.05645282780259529,9.466398197694598,-18.70004169202113,0.4108297548931842,-1.0311223033740373,0.2350431367192062,0.2682440085195152,0.7494044149753021,-0.40489978674944904,-0.2287613636402477
45412,1.583,-0.9884988547361124,-0.07845764824492778,-0.11539621533824304,0.05829343962127525,11.919580462839148,-20.36277227625687,8.091402615525352,-0.5136980907405506,0.2963425586092703,0.3808924402144168,0.7592499362964535,-0.4025927660402605,-0.2359434910080552
45414,1.600,-0.9885757631233183,-0.07808452315934934,-0.11505110728604129,0.0581722487134737,7.638139784386738,-16.31334556263948,16.412154034099306,0.008007850559655421,-0.06131392373052678,0.0010630966245505948,0.7559303012148485,-0.40575995125856795,-0.22941154443886114
45421,1.658,-0.9912020190292065,-0.07618906644230877,-0.08563213113508161,0.0661885318188769,0.9712868743023844,5.088615481204479,4.008014409768024,-0.18609878422688272,-0.6733433575125692,-0.7847062289514197,0.7441615073514468,-0.3906073015409778,-0.26774876283745086
45431,1.742,-0.9950840818825232,-0.03869932119539255,-0.06499143910032161,0.063922964314095,-1.3934230767072977,-7.993551506073028,2.0447411190240774,-0.12743145212161192,-1.0060011116862342,0.19189796150235888,0.7361636736588596,-0.37511125712038296,-0.3236037256731152
45432,1.750,-0.9960472247893625,-0.03450976579750153,-0.06023343791845675,0.05541601763510451,-10.26985406288194,-9.15928234812831,-7.076591561286428,1.8142802933607207,-1.78315213566432,0.1442721075746465,0.7275156250958427,-0.3899957035678979,-0.3416673529203346
45440,1.817,-0.9911968467549132,-0.02320056638501568,-0.10289943588485623,0.08001406624531736,25.296361663005108,4.781106489907886,0.7900047598622179,-0.8551768500321674,0.697390609290464,1.047120951355131,0.7834884992864172,-0.3397125058839049,-0.2860568040550238
45445,1.858,-0.9938791510948518,-0.04536007328568926,-0.07262505720771775,0.06980184693881533,22.928261703005635,-14.40466464061472,-12.488674787593906,0.826007631451939,-0.21428265223992232,-1.6646570593786971,0.7588641481609424,-0.37941750674291813,-0.30751192491228735
45449,1.892,-0.9950150337628746,-0.056975124994983556,-0.07176414049476616,0.039355124910483506,12.476135255539184,4.320557018428141,4.351014095717542,1.9454820429763109,0.21913980430124919,-0.10193267969412967,0.7345162533846331,-0.4236702976963814,-0.301749225808375
45451,1.908,-0.9947544269123296,-0.062056542686392796,-0.06960327057857349,0.04204759651753301,6.203742077546198,19.90595603965674,26.45703755445923,-0.14618437162186382,0.3227748486739983,-0.6474033711873525,0.7498683068739705,-0.43394964283452186,-0.3116334218104298
45453,1.925,-0.9950403368373352,-0.05339510602989185,-0.06506217124543567,0.053015135494767385,2.21772535525652,9.488031898359809,18.319487891862476,-1.4826733839627815,-0.9497077580889562,-0.020298397376233856,0.7454828768832115,-0.41471775925152127,-0.3225135230628878
45455,1.942,-0.994844855750968,-0.03842621516199974,-0.0657164265432091,0.06699619583641073,-1.7912088704553915,-7.656478543046648,-1.1608968901723826,-2.0529113220954884,-1.0478469364024345,0.8514894654726781,0.7565400336745013,-0.388648945082887,-0.33833619684938854
45462,2.000,-0.9966913453822493,-0.037997203447621135,-0.05492899941325949,0.04631824255884714,3.7556263775184395,-6.131815630454403,-1.8601177420721713,0.705703800922171,-0.35665950185806905,-0.13852860183647991,0.7416427058879561,-0.4272415443358327,-0.3644738765911624
45469,2.058,-0.9985939789265708,-0.0230453665817754,-0.01930476956519604,0.043661220811448014,-1.1054692667315489,4.0239669603691715,6.9978067349672175,0.02493481450979647,-1.1969925356310083,-0.5749445878164134,0.7108664808580218,-0.4124752333502286,-0.4430996114091377
45470,2.067,-0.998719000337479,-0.02109701888482177,-0.013439192296688957,0.043984795890086574,-9.091141253808496,-5.640376698927377,4.402639325918418,-0.11995030210204259,-1.2584375607906033,-0.76458446807313,0.7030209777897861,-0.4240852132714061,-0.45808177547012763
45472,2.083,-0.9987182105544326,-0.01820748177449101,-0.0014159960411977068,0.0472061274581527,-10.58486609758723,1.7614214171968172,-12.493211974889117,-0.40001590751837823,-1.1623563360598488,-0.9162241012755329,0.6904602649730074,-0.4155423208534775,-0.47297958603877166
45473,2.092,-0.9987636352280237,-0.02352882836329197,-0.0023914056976624305,0.043725008413297836,-10.098411280347408,1.8622421618043699,1.5429784808218718,1.0151711788992508,1.016132974874639,-0.5357499812943975,0.6819074984613948,-0.4254784288174607,-0.4652808357528569
45474,2.100,-0.9986991451982078,-0.02775323823059002,-0.0018506047016043287,0.04273582116122401,-5.9374637593164366,1.1808684426369094,-4.494610259763518,0.4172217672210801,0.6410411455863426,-0.7190936845557323,0.6908516537830772,-0.4298526862799537,-0.4656120317438758
45481,2.158,-0.9971134421596544,-0.04421560653846261,-0.05734834970369028,-0.022823899518398423,37.11353878946899,-5.918423656353015,-7.734672856162809,2.2439958022088375,1.4375493929210261,1.378049666164078,0.6660411829204524,-0.5273178326958647,-0.3906106881022401
45483,2.175,-0.9978610732736246,-0.016958643176763953,-0.06307112236092573,-0.002777839258548058,29.70139692663764,33.85745634696967,0.785342169739744,-3.1440028593876064,-1.4378628168647591,2.2620626745269163,0.6966859659629122,-0.479987257614119,-0.40590689409505243
45484,2.183,-0.9978176126996394,-0.010062312726215671,-0.06397529983715064,0.012881096992865881,21.797049325025043,25.606950136617066,-6.437838455098513,-4.058695819878538,-0.4109975908537023,0.6115981500189136,0.7035788373562564,-0.45497002080456567,-0.4103396574739185
45488,2.217,-0.9946150299421613,-0.024319500639273593,-0.081644287198572,0.05902299949721212,12.241705368603673,-7.172717008563681,5.722324964385078,-2.501887950612693,1.7941730957507012,-0.25103645969298394,0.7503030734257076,-0.398145073660869,-0.3734309016417471
45491,2.242,-0.9931297023246255,-0.03512157423457012,-0.085919334221802,0.07125824437052462,1.8221366020657828,-19.802094422849432,12.78733721216173,-0.7561671666876196,1.0384361446244632,-0.46351932727044054,0.7572648355808255,-0.3846233518714916,-0.36077231486929145
45494,2.267,-0.9943573488292954,-0.031068534251181196,-0.06269056624113142,0.07973770697119892,4.678572439824204,-0.499614378139846,6.889979463857661,-0.6486583804313881,-1.3241602570281947,-1.3635933688447086,0.7475738178769676,-0.371622070449138,-0.4049276597393333
45503,2.342,-0.99513368262154,0.006014597238848906,-0.03614880712923898,0.09146607062337246,-2.1725138317564348,-4.181588446749894,2.7106312196589117,-0.50124951467545,-1.1515099050665931,-0.0014767090025441432,0.7267872766140101,-0.318032473892554,-0.47241800910026926
45512,2.417,-0.9925828935507958,0.015439801041637127,-0.08851973982384344,0.08188447737907377,7.524349164319597,7.748951322719798,-2.7618450554848697,0.17125735135984538,0.6364662975534356,1.283855193001723,0.7563820248679043,-0.3075669854525447,-0.3963114457810289
45516,2.450,-0.9932341565440141,-0.005774693054944602,-0.051435922788629386,0.10395628428000016,48.4723292463082,-15.744208573770505,-11.708960624330375,-0.9604673420489771,-0.15940878703962016,-2.7235638220303593,0.7400137467917349,-0.2959087919542926,-0.43136224325615247
45518,2.467,-0.995146614887714,-0.01343569168400253,-0.033797535889900324,0.09143535221273709,18.54581228775441,-26.81355875454795,-16.797439174603955,1.7203023024119937,-0.8229321231911325,-1.9867249915450929,0.7143087774679193,-0.32568311192626304,-0.43949017918133804
45519,2.475,-0.99659466232449,-0.017353631050683764,-0.03227524764552252,0.07386635841242589,12.346677164698576,-17.91178542558507,-2.1810325713604377,4.328627056325047,-0.10254686355402357,-0.22049060545779547,0.7069913873001392,-0.35608148301237785,-0.443658532774656
45521,2.492,-0.9978877646563165,-0.03018025135972929,-0.040425451006421725,0.04092608566685742,7.802132740983345,-1.9548707046942384,11.730338937988375,4.157571424007104,1.2439282806621292,0.40723550486284954,0.6856568326248381,-0.41793698613666,-0.41809913446965774
45523,2.508,-0.9980593338446753,-0.03699544720865171,-0.044001158603657296,0.02393326247904617,-0.7902234478796996,12.051759117658065,30.12381725469501,2.1389832451772715,0.6164581011946008,0.13593129646389512,0.6721352408163769,-0.43430580573628574,-0.4097757442021317
45524,2.517,-0.9981907840182725,-0.03449157409475986,-0.04434571215181901,0.021423067735519025,-8.471669168664835,13.77868665002603,12.322981362550697,0.4410433796312276,-0.45570045797243125,0.5563270760797454,0.6740942877598307,-0.4305270225448984,-0.40317921971088727
45527,2.542,-0.9985098307874573,-0.019194763589419107,-0.04358667942637554,0.026643577990440696,-4.369014201990281,4.515546256287698,-1.6964001747053696,-0.666595286608223,-0.871623408243344,0.6859056037874084,0.6757995451937964,-0.4145981823312739,-0.42281299124612753
45529,2.558,-0.9985574270434966,-0.016149440636482652,-0.043738025924298214,0.02663166445504756,7.875408557977745,-4.449816606552691,-6.975812770798046,-0.09179031059953524,-0.24899535298114925,0.24956878068137228,0.6839737999373726,-0.41411350240026024,-0.42226536605698417
45541,2.658,-0.9999009638240135,0.003860031052370367,0.00504052415775301,0.012560088387400454,-1.5052945358245309,2.276256464511445,5.474337441268359,0.21049802013699712,-0.9878296612208404,-0.41640760491886997,0.6295005765903873,-0.41458939975111864,-0.49177243326315073
45553,2.758,-0.9990820836857006,-0.01697660236629199,-0.03921096040674991,0.003047230597755416,26.384918284993237,2.7975567459586888,-8.435974899544773,0.25309230843306174,0.8803808271661305,0.3916370559486885,0.6590765767903003,-0.4437197168172141,-0.42681699993178757
45554,2.767,-0.9989350682402158,-0.01514254592509676,-0.039100889463974164,0.019249758075041316,23.802760965519298,17.887112036902664,-1.7865183316991529,-3.994136191917889,0.25937961920740327,-0.34752694282577123,0.6688978578718948,-0.41664945291145183,-0.41887443190116486
45558,2.800,-0.9964649267776099,-0.03742484401561512,-0.04908419472698406,0.05698923214523088,8.402275048966196,-11.150610078120566,7.601955097774254,-1.9412202653929744,1.6989105069259165,-0.7920582266911353,0.7087143804525646,-0.39190393240403576,-0.3735642896970507
45560,2.817,-0.9955650971528189,-0.04522997272731754,-0.05702066732805274,0.059607301529666055,-3.8744727386852844,-26.551547906556614,14.051170993194456,-0.1676427786321722,1.372358648329783,0.07298393388951464,0.7160541693280277,-0.38048887836488243,-0.36642535671054954
45564,2.850,-0.9968982939943997,-0.034588121632858196,-0.03378168193803674,0.0620987217131204,2.1083031844172933,-1.7186930783370542,6.012143758172905,-0.2075480275569046,-1.3666263776638448,-0.6845224822795762,0.695185491902069,-0.373546580516097,-0.4004380167927584
45565,2.858,-0.9971948307491594,-0.032167548981921736,-0.025446620866386476,0.06261140316375076,3.0907245611565597,5.20343237017433,1.2841512314713792,-0.14384988156993733,-1.713536523339041,-1.1756417982309666,0.6947182055234956,-0.3775739302435234,-0.4154764010759598
45572,2.917,-0.9977247826918282,-0.01039648863936454,-0.0021330620747776223,0.06657793232521649,-0.3848343001100444,-3.9731594767720058,4.403551614369291,-0.24258149442877527,-1.0632595388944754,-0.161427907249111,0.679963910444382,-0.3561280976022687,-0.45378512337921656
45575,2.942,-0.998556547588087,-0.007214773511033048,-0.004455639395334246,0.053036926661745705,-6.402190474538166,-3.0183328262272062,-6.8922041861266115,0.9996042949240829,-0.19983406111429305,0.44001491346014954,0.6716866400166446,-0.3725165539359304,-0.4585285520121463
45576,2.950,-0.998867402472288,-0.006212924651058479,-0.0044069038038788,0.046966914359030054,-10.252479561490532,-4.438175761987585,-11.771654777806452,1.3699896389186306,-0.36291746881995207,0.3281015437194948,0.670949058236158,-0.37319791626499926,-0.4606299185123506
45580,2.983,-0.9964840645646497,-0.010364728476458787,-0.048663856137101266,0.0674085349061405,5.34125015227171,14.515347166587434,2.9990024770265444,-1.2034820949882594,2.0790840114098867,1.6909271138323734,0.7313649577988949,-0.3443409144882249,-0.38249920782785396
45581,2.992,-0.9956036642315178,-0.011801886100960574,-0.06022138560420161,0.0707632953525022,51.958953072365226,25.089810500567154,1.055612299383129,-0.7796147075028412,2.1708830428059573,1.7933097714907615,0.7327818571394984,-0.33481796558323534,-0.3688669539625918
45583,3.008,-0.9948075627042956,-0.0191858313970301,-0.05022256373666091,0.08641476234799565,75.01923434074615,-18.15460518781634,-13.668449363877238,-1.592108741623669,0.2076790023555249,-1.7812890273272852,0.7345616910648909,-0.32193290557791426,-0.3736412581714613
45584,3.017,-0.9948704809863665,-0.02489264285145417,-0.041189478762841396,0.08897476739543042,32.807313937539135,-25.351217820580644,-18.027999757805393,-0.2164540194699019,-0.2170016392604649,-2.6157740403306557,0.7377523793577566,-0.3241468546361684,-0.3870910912487419
45586,3.033,-0.9961625141669221,-0.031962368627773845,-0.022357986318798664,0.0783503210466164,20.849822283086272,-26.669114553271093,-16.762437668147346,1.5266944167368042,-0.9456347252306503,-2.064035039207423,0.7117919959082754,-0.35101867962784444,-0.4040977146394104
45589,3.058,-0.9979067486990572,-0.04290076554066082,-0.01814557028214044,0.04485959759112849,12.42232450719476,-7.473701144936322,3.1172924116542853,2.8169462649513433,0.12952146044592638,-0.3759998739442081,0.6886125999243976,-0.4075377490205776,-0.39283905256560514
45591,3.075,-0.9975177801035479,-0.05627768021314942,-0.020697749909338193,0.03691482406577982,5.326391968710373,12.626376250704993,27.24865954684245,1.2255210570008765,1.2931266206136156,-0.6471170471682001,0.6873848773606819,-0.4335385553492539,-0.3829563010502659
45594,3.100,-0.9979400245577921,-0.03977958483333311,-0.021640640367726092,0.0454419927001018,-10.251383971902627,7.009562478882695,11.88290693781011,-0.9234352231172761,-0.8530150440971282,0.7932859692285631,0.6940940226992193,-0.40768079076461766,-0.39355370366432674
45596,3.117,-0.9982650763892056,-0.021714786752407057,-0.025783873675716724,0.048275223005454115,-0.9494745566015865,-7.536636561796221,-10.451051496357827,-0.7725587545731368,-1.2414963723226822,1.7094032472510376,0.7003061251630764,-0.39496559283034427,-0.41100435583189826
45602,3.167,-0.9998259709338004,-0.008406231688259708,-0.006107688574859656,0.015493845725300284,6.889425246651339,-1.0347664166167538,2.507090204219527,1.2072943739894828,-1.0834151751412189,-0.05337469909756269,0.6587081726771796,-0.4260383001814037,-0.4525314177637157
45603,3.175,-0.9999268343197714,-0.007325735406211409,0.0014224169292075762,0.009520311868733642,-3.6579384847840295,7.685856783408359,12.483037377503946,1.386472860059916,-1.5842108181224652,-0.9675065193797254,0.6479597285575351,-0.43597440814538685,-0.45733666521109595
45604,3.183,-0.9999346857397681,-0.005685497357432314,0.008918190171278742,0.0043318885464356215,-4.726578870439672,3.5023175761232825,13.452392374931279,1.1779968919154158,-1.661392389193672,-0.8962100209524483,0.6357671223711645,-0.4429812008020681,-0.47180336249214455
45607,3.208,-0.999623418118765,0.0002956210683282241,0.026957908200171608,-0.00511915444309796,-3.71663171191066,1.545389638567814,9.599767356062957,0.6791888194976904,-1.4211857450714702,-0.6374823342426585,0.6170299331075637,-0.4471105622894315,-0.49801039819033677
45609,3.225,-0.9997962921055819,-0.005320253971325353,0.019415349976646692,0.0014537451272901352,-4.7075468374636795,8.871405735216557,-12.060680942958188,-0.6779711110833809,1.192284699631539,0.11337117125063191,0.6247815045521898,-0.4477847410255288,-0.48871288899772153
45610,3.233,-0.9998498378088196,-0.009201483303948993,0.014434742944223927,0.002696800848864702,-10.58432820457545,8.99227577528192,-3.7558198963957166,-0.15551153093147388,1.5246486983796994,0.2029957384116273,0.6289020605123987,-0.4505906513228267,-0.4748117638196843
45611,3.242,-0.9998380640865296,-0.012757554762931545,0.012559586934578244,0.0018295289568390708,-7.214134406886824,5.261010754099331,2.800378345814649,0.3395345049085309,0.8985629337943996,-0.22745553729280563,0.6215945512537452,-0.4600403228397651,-0.4670838022311487
45613,3.258,-0.9995867998479977,-0.02618427802229675,0.008751739250761613,-0.008001263286353253,4.3628089073824805,-12.729525486926189,-6.468095929245909,1.4112370294462548,1.3440152366572757,-0.6211839903395164,0.618322000986261,-0.48789029027362374,-0.45758561110090207
45615,3.275,-0.9985024343186465,-0.0523447851739551,-0.0019918821070004614,-0.01577797612185791,43.77944234980327,-31.210122523634816,-23.0500276479031,1.400293252917333,3.0349753980462864,-1.106847027800193,0.6235996450987844,-0.5123602663891459,-0.41587767504766654
45616,3.283,-0.9981902127710786,-0.05409589470996403,-0.011015744941036725,-0.023845055398383094,96.67146908306988,17.09628917873952,-13.13585499577755,1.8586536168248582,1.6535096094273312,1.5426761307392134,0.6263079924900217,-0.5239451824993469,-0.4037115771750193
45623,3.342,-0.996342662169413,-0.0273947655416693,-0.039100335569134725,0.07086600116039633,23.76532822020189,14.1947925575292,3.8421793253133023,-3.402627796608786,0.3619577233013183,0.7719871574548317,0.7440225938841107,-0.3720012255881526,-0.3941411538121754
45630,3.400,-0.9953714225144912,-0.04140234644173594,-0.01808309449424811,0.08482086208067527,1.1399189804525927,-13.211373684174198,9.405084573038092,-0.3365191755652842,-0.03033116176966075,-0.9279208504433053,0.7256742311290666,-0.3757854358564803,-0.41818558226479585
45632,3.417,-0.9957427060546343,-0.03606731631017359,-0.0009064687812558855,0.08482211001575646,4.386081591863485,1.6548848103444602,-0.012695577692537095,-0.03187112476921737,-1.7852547377127646,-1.207258429302885,0.7143581850879016,-0.3758015595584543,-0.447678764610044
45635,3.442,-0.9959073211925613,-0.031149862327371464,0.014843008049045252,0.08353429705276014,-1.4979375689229877,-7.00996000275232,0.7156665785935294,0.09417989870816576,-1.1064160613105354,-0.7202786631827487,0.7001626391036252,-0.37502009951432685,-0.46972578307024376
45638,3.467,-0.9958597385647563,-0.017089560818531947,0.017732192946596136,0.08750369906506414,-2.5398564361933995,-5.942630002241066,5.6753175347973475,-0.4854121600604077,-0.9819118326873142,0.4722271554665589,0.6883259870489723,-0.3514765392318506,-0.48574224148367184
45639,3.475,-0.9959493220039592,-0.013857333190463946,0.01563363263015449,0.08745577080724012,-1.9292229002518897,-3.0276321251937066,0.7439993763112198,-0.14645250360748974,-0.28174918504635593,0.8692183518455545,0.6972132963952331,-0.3467266396624049,-0.49275610869805553
45640,3.483,-0.9965093309868156,-0.012479331675668882,0.014040841533714068,0.08134048380826982,-4.238289592013689,-3.716194655843192,-5.750256008134092,1.3949321735500426,-0.17208075994087405,0.6789409284097064,0.694332211016755,-0.362682300203037,-0.4858054185074089
45645,3.525,-0.9973691764391721,-0.012517028714929955,-0.0009567952494180042,0.071394218421723,-6.229876720336572,5.22535772673359,-8.43933509185961,0.45369492854815185,0.4034631571492707,0.6153677267207688,0.7036103849445843,-0.3762951795984705,-0.4648779274823897
45648,3.550,-0.9958499756043422,-0.01128079215856082,-0.02664150191989062,0.08628905024717749,43.28424573495202,21.697440827338557,5.442840093641173,-1.2581988739640608,1.3799067085573469,1.4882811207241942,0.7476296681799924,-0.34393126846129335,-0.4297250716315442
45649,3.558,-0.994820519617883,-0.017944328615119107,-0.02349072380233723,0.09725389818922855,91.93296325704767,-29.892611525201552,-28.97819701686885,-2.275892642804488,1.1293075481622867,-1.9461584956270126,0.7389058786944237,-0.3380530011126535,-0.43934761332662037
45650,3.567,-0.9947348022176224,-0.023781327495585158,-0.015549269136833306,0.09846492750683528,32.21193390146974,-20.506922540767928,-15.465811880882109,0.056553455845495794,-0.05487570738673912,-2.381735894331155,0.743061974048264,-0.34370952225226176,-0.4447870604533783
45656,3.617,-0.9979932753018694,-0.04981139599674245,0.0067190008473590355,0.03851106735363212,14.21294842110804,-12.344412061330463,3.272482865328278,2.5883338602018364,-0.03354699832821605,-0.973472308340254,0.674249369818983,-0.4552920222575032,-0.45649980189703515
45659,3.642,-0.9983251528336634,-0.03954515680703092,0.003824415215325822,0.04205286721509877,-11.670048355327117,13.305684644702998,16.3866099681963,-0.44190644170420984,-0.42607521286338923,0.6617985240182847,0.6787861054109786,-0.43609765562654357,-0.463493344988303
45663,3.675,-0.9993001747992707,-0.0026049112775643726,0.0006473703171600224,0.03730892647953997,0.9105768962001983,-6.769913463396126,-7.553747343490551,-0.10477002653510026,-1.5477522432199808,1.6199164737790053,0.6863455393529165,-0.4143030012053439,-0.4896083715288345
45666,3.700,-0.9997924724278082,0.0037320065745862843,0.014371045992816934,0.013948377708188055,13.387177705587622,-3.6871504238832147,2.576873980833548,1.7551776670474095,-1.3289461315433866,-0.2685333676671417,0.6444571907006462,-0.43307366968112354,-0.5236481590539808
45668,3.717,-0.9995439401517647,0.004349757234448745,0.029851579639825994,0.0013691277858706827,-0.25784565506632096,6.509491193420556,10.976360330933835,1.4655529879193847,-1.4881974358856556,-1.1557273261881227,0.6105329010858945,-0.4519516194649333,-0.5362818234961844
45672,3.750,-0.9983655366246398,0.007917371215763214,0.055669793227239285,-0.010219815813607378,-2.5742248535450143,6.70624811484734,9.15678605088767,0.6495669049918238,-1.2936299896879595,-0.9142352377604148,0.5771210455324005,-0.46198079907985085,-0.5752803313290771
45674,3.767,-0.9989910816217702,-0.00010598586089663407,0.044902444249074205,-0.0007603338885658119,-6.195030737459681,10.164962364690089,-6.985781883742295,-1.016829153291367,1.6924279442946197,0.17949644682956628,0.5953309541512272,-0.46045348189875873,-0.5546818552565599
45675,3.775,-0.999140789063101,-0.0035180051683009815,0.04126173170981974,0.001666363197694545,-12.342604770820548,7.26056183646463,-5.943458512794837,-0.48716925738180483,1.2484846873577238,0.022721958759719725,0.5934598021200354,-0.4586651450405628,-0.5516266480946206
45676,3.783,-0.9992433656850274,-0.007551886603939766,0.03812517452085722,0.0014615782342501228,-7.165508976957894,1.987366719639089,-3.4891976525080337,0.17674684336026786,1.2094942263116673,-0.10789987010871487,0.6004907728941988,-0.46087015398981446,-0.5412110986425671
45677,3.792,-0.9993139805097359,-0.013913209461000326,0.034321778053088364,8.069421658656397e-05,-2.1762706091495896,-10.864220267127337,-18.207964068872013,0.5129761173436209,1.6992125492647996,-0.3451909085244151,0.5944970026815232,-0.46668232754337463,-0.5235509091454811
45678,3.800,-0.9992825754284967,-0.02343567004631952,0.029404886625991524,-0.004522881491260262,6.929748208097345,-14.495117399983464,-9.29550319349894,1.3984943375495362,2.353413173120455,-0.5878086596129556,0.606613418304757,-0.48919043416874397,-0.5060963203876302
45687,3.875,-0.9969990810892078,-0.012559446184607225,-0.029747686827898412,0.07035742851469891,37.726338067201496,4.46425581422557,-0.6865323773641537,-2.0540720808244908,1.0651028308690016,1.1002269011231123,0.7214824390212681,-0.3618559820850497,-0.4551266708740908
45688,3.883,-0.9961686767619296,-0.0164414503465485,-0.03541690987814628,0.0782514449935115,-2.0330702374867293,-25.13286056805431,18.15811232469983,-1.7851617993911342,1.8719735290990822,0.18508218943070887,0.7348385496893374,-0.35572547763946133,-0.436898265960085
45690,3.900,-0.995145815139703,-0.020502120853627324,-0.04271444822985167,0.08625511905307194,-8.775837635483581,-20.51449659236074,15.46952984042837,-0.8677941281391766,1.0625222454246979,0.23039681056930028,0.7379084751811807,-0.34661026071652506,-0.42777017305905973
45691,3.908,-0.9949901794803052,-0.02017011946484406,-0.03970987276464658,0.08950326822825996,-11.77614218639983,-7.056575456856374,4.999429412435356,-0.7759304376452701,-0.39200770090867043,-0.6415249928331966,0.7393502195568583,-0.34490238483935176,-0.42380944776179
45695,3.942,-0.9951354401221323,-0.002945233620623817,-0.005748500493514232,0.09830430384233615,3.334802556856315,0.48993925091899587,-2.8581711409823938,-0.6566709864718213,-1.9922617532021827,-1.048139120435366,0.7202740316945493,-0.32050041656378764,-0.4821808420617432
45696,3.950,-0.9951610994879997,0.001503684528110702,0.002231110598642433,0.09821989179475227,10.00912060077848,-1.6536224647342155,-1.4308668182168263,-0.17203255567323175,-1.9985283647980667,-0.8641237168025186,0.7006182784057587,-0.31543410014719214,-0.5040126869121774
45698,3.967,-0.9947723305918728,0.009609141250934598,0.014517898558549371,0.10062258849124354,2.1058570877309735,-4.1050330048810455,-0.42096300429153105,-0.4267873796885044,-1.628674718709983,-0.6087699066406431,0.6950646388434975,-0.3039725890469952,-0.5213803061086775
45700,3.983,-0.994072683681617,0.019901445872028443,0.01989368733104576,0.1050127288218195,-1.914684340793779,-3.7140980271491633,5.797037069522605,-0.7259280435697036,-1.2935105786158925,0.18061007687336691,0.6885130278706021,-0.28430615315493385,-0.5246916248471472
45701,3.992,-0.9938451523644138,0.023554062830406456,0.019048638742423712,0.10655594121398199,-1.872183406296834,-2.2262483308698173,0.5996500255782007,-0.5175357829590993,-0.5153351077983146,0.6536938272948647,0.6896391243587616,-0.2890506256474391,-0.5365395393969168
45702,4.000,-0.9941897964614644,0.02436459686409211,0.016528258510044972,0.10353662010220317,-5.974524500476685,-5.5089459191934775,-1.5689648156815559,0.6967073200448674,0.12156110073250202,0.6631219982194484,0.6867121991643031,-0.2851466809300167,-0.529828675870892
45703,4.008,-0.994972943720109,0.026413880328455083,0.016943841523093757,0.09510023357161589,-12.163125849539727,-7.048464752928843,-0.11568038469342108,1.9166938848806996,-0.7008717483116067,0.3995646112866895,0.6875758498574283,-0.3014134887697054,-0.5324590917165123
45704,4.017,-0.9952950917452105,0.029557744541705875,0.016971473470209168,0.09069723906355065,-11.672586544883698,-7.3696008559745065,-5.9708324393125,0.9318240705215994,-0.7290432284821879,0.5469947866056862,0.6822489683124014,-0.29677454106919915,-0.5295406933343334
45705,4.025,-0.9954204952095024,0.031668185927955256,0.013500686824920283,0.08917900634205948,-8.292966301592402,-1.115121756921088,-4.296751269104775,0.27917108031370175,0.07804186054563772,0.9963854241666665,0.6877729666383026,-0.29865227901742014,-0.5317500768980418
45706,4.033,-0.9955940614364127,0.031198335315237975,0.0053016289960965525,0.08826676291840868,-2.2782076541599188,9.396283484999259,-6.482031922865682,0.27087133738731467,1.2728568438941616,1.4971019358591842,0.701177483197569,-0.29582306142517684,-0.5177440647610485
45707,4.042,-0.995319720770458,0.030521467424692163,-0.005945411212052592,0.09149724344033966,4.738451482978051,15.09458716120137,1.8064339030955956,-0.7123885626685484,1.910257107949246,1.9498538261927139,0.7028927231966116,-0.29267199990884335,-0.4984630498551477
45708,4.050,-0.994961323272058,0.029549862055236832,-0.018680977897629802,0.09396697244255559,11.438764543993273,17.77983265274179,-4.0049423646132665,-0.5007803434181086,2.151207418638332,2.207255936421471,0.7190433273160981,-0.29388801226203154,-0.4851871213832915
45709,4.058,-0.9948105646377348,0.02980977658711275,-0.028482982462232142,0.09301632875487242,23.867012971821293,14.88811462544056,-2.6718571438459633,0.22343397062197817,1.366977388148441,1.9192365598576306,0.7302453409691935,-0.29719999574041017,-0.466828337282744
45710,4.067,-0.9948311302558219,0.031167962087861448,-0.029385773115862237,0.09206550250553762,76.37078908391626,-7.267969499123951,-8.18363238104932,0.16347252602931373,-0.156845050250951,0.3942693452908673,0.737035182360205,-0.2959892529353151,-0.46628548785660917
45711,4.075,-0.995006246047332,0.02778826201984916,-0.022640502569967476,0.09315465884266054,85.7481433282436,-33.16605610396476,-33.06184316775224,-0.12589642753092603,-0.321650947121369,-1.7964493710612275,0.723041986963187,-0.29305642459595116,-0.46952945912231986
45712,4.083,-0.9960570094292452,0.02537694451943716,-0.01212189690454561,0.08413979004705324,24.39968603115231,-14.248998358395477,-22.25752129877436,2.2232266398789964,-1.4552291770121255,-2.0990870948023757,0.7035868790784621,-0.3079820585564166,-0.481233618992208
45713,4.092,-0.997363750244146,0.024064990515911745,-0.0020968668565999092,0.06842535407134007,19.09739062369852,-11.17920697851892,-11.994920382886963,3.738414318316391,-1.8190738742983341,-1.671611614524976,0.6914503220189382,-0.3414420900688399,-0.5024028116563338
45714,4.100,-0.9981832798646879,0.020223905298760957,0.006019173627275408,0.05643494486474197,23.213941132953757,-15.466200519306138,-7.4428620966696935,2.980684456732598,-0.9481807568509736,-1.7883262817816445,0.6650006232711455,-0.3604988420326997,-0.5123829829225913
45715,4.108,-0.9988001547494424,0.014692942041938729,0.010331789685610292,0.04555899964370429,27.84692288710005,-8.287170920730123,9.637830805391427,2.773422108089376,-0.010828850542367536,-1.3756885184989673,0.6610536669045772,-0.3802601060917266,-0.512929285319101
45716,4.117,-0.9992063112412091,0.007746476309641266,0.010763163377410664,0.03756186889163065,25.17834540170514,8.795265047511949,23.926548477794114,2.1694334634269423,0.9307615463896303,-0.959616911633537,0.6557936817172022,-0.38922334116162033,-0.5006033440253943
45717,4.125,-0.9994614070234855,0.000496473101046117,0.01217984845757219,0.03046802712099578,15.5638880933062,9.531211329884448,27.57066881054809,1.948668916131552,0.8619859531611749,-1.2091663283363503,0.6526422678123889,-0.40432953381816694,-0.4983148295636165
45718,4.133,-0.9994987804082628,-0.003923735861195972,0.016393087864363408,0.02679662160718726,0.06302781885775417,6.706355678990023,32.52911379106537,1.0478894788185211,0.0034409707900920888,-1.3532919051152454,0.6443414116658892,-0.409823376479699,-0.49983172798091036
45719,4.142,-0.9994682268190869,-0.003076533004959438,0.019309116612283298,0.02609514398184909,-10.413889205180487,1.6141434766741918,20.45371737907092,0.12619752993028352,-0.6318462745904231,-0.367667446641493,0.6360693893627073,-0.41891895666859924,-0.49565254048660884
45720,4.150,-0.9994485311136916,0.0029861650481802877,0.020811765811491124,0.025701884693493916,-17.920046475940193,-8.354735446814272,5.9593296810638545,-0.12514239158554366,-1.321245449376639,0.7048990992238796,0.6317322311971484,-0.416281151926318,-0.5097635067868334
45721,4.158,-0.9993827545960191,0.013055735518587784,0.021612469812261996,0.024424551884450536,-16.9100531325282,-13.614186332743996,-7.977480250513441,-0.0804730763397575,-1.93330608540712,1.4873290220112663,0.6306297490640939,-0.4066258579023219,-0.5194849549502744
45722,4.167,-0.9992813248803295,0.023918372509790384,0.02167254094991495,0.01987576842970451,-11.844677999765503,-11.805698100878452,-13.55879756070097,0.6856849367407432,-2.0527260718985887,1.8205145409627719,0.6360887256886392,-0.398184819715483,-0.5315979627052578
45724,4.183,-0.9988232140114702,0.04016637333374321,0.026826640939990064,0.0043796051064858435,6.524191942917626,-5.984215770947255,-7.812076283624863,1.5224823699212713,-2.0729905907390593,1.001707891334338,0.6101595252419957,-0.39707257563826276,-0.5466270533953534
45725,4.192,-0.9985529476324237,0.043790459998423965,0.03106966057057282,-0.0030137318650910955,16.906875553709547,4.636160930847928,0.10439060932845225,1.5725497685374548,-1.5528063859375276,-0.029123027727963238,0.6058360801478556,-0.40837316477641467,-0.5495860055745856
45726,4.200,-0.998272976116225,0.04504486123797215,0.03642670274216102,-0.0097529974593174,14.322829166210663,10.003532210047172,2.972122133665245,1.5031209012106528,-1.3148698510351882,-0.6217069113970771,0.5932242033116046,-0.413468215564896,-0.5637312037005869
45727,4.208,-0.9979532332328651,0.04386489067960652,0.04362365480834711,-0.01619235581684321,10.194583167348357,10.340525459855407,5.536614227126164,1.4743287192342103,-1.1892802524597277,-1.347601055675641,0.5761463600751319,-0.4213227195896316,-0.5639547563547047
45728,4.217,-0.9975302627923602,0.04149393266209412,0.05213941336118433,-0.022206078897249546,5.311968073055765,8.3906614980262,7.4343845003385844,1.4130189385017948,-1.2010222285832879,-1.778838148156003,0.5487306246082088,-0.438476669794294,-0.5787228143953068
45729,4.225,-0.9969157782057565,0.03976154240236141,0.06150067146885603,-0.0282067069874682,0.1612643028890527,8.207205760601878,8.865179354427553,1.3643653961928217,-1.4476071632504486,-1.8157672092017059,0.5407645176675867,-0.44087309159350757,-0.5807942462138527
45731,4.242,-0.9962218195996655,0.035404788532313325,0.07262596105605171,-0.03184425981553221,-2.0532577505616088,10.14907587139481,0.4416362223049517,0.4375535878010598,-0.6249469933591674,-1.2937828396017186,0.534820379537998,-0.44940353087037166,-0.5914006413580016
45732,4.250,-0.996550691115987,0.0320273818083473,0.07138925872471719,-0.027650327113546962,-6.232235539225275,12.777052496140797,-4.430509471781038,-0.9321893056949603,0.8858371242721734,-0.40374251516124904,0.5352331901896047,-0.45128845241156407,-0.585771981024845
45733,4.258,-0.9971471629199531,0.027794611456200338,0.0669539215067589,-0.021027778046066318,-10.331579253044648,11.365853990076115,2.5938370943915814,-1.437601008679281,1.6226288506075706,-0.03279004337640129,0.5443575143065595,-0.4495555127234142,-0.5710143754451699
45734,4.267,-0.9974759843071088,0.02420941176585928,0.06433626313523796,-0.017787927319110768,-11.847837834418682,8.651939312091422,7.54862015841795,-0.6779491035806501,1.130264807942114,-0.19164572056059673,0.5618451931506672,-0.4454976721080709,-0.5678882765616532
45735,4.275,-0.9979100124311957,0.018629660604257633,0.06077301936730122,-0.011626820387486832,-5.923891744092988,0.6673153194091906,-7.61546748349887,-1.2985003482325257,1.6915771996386126,-0.40459266864272225,0.5634721872557535,-0.44617903443713974,-0.5565237993490784
45736,4.283,-0.9981173753880116,0.011788227985890139,0.059124104546541434,-0.011273104766227497,-2.298619472819884,-9.251302625318267,-3.9196343546598587,0.09368184858026818,1.4586239644020853,-0.8551314784764907,0.5761677163821999,-0.45841306547246163,-0.5552828448397769
45737,4.292,-0.9983125481917159,0.0029704654626968117,0.057097444900415045,-0.010154518390466044,7.606105282073786,-8.537414811874415,-11.812352972410155,-0.015527087149181178,1.8714089924757549,-1.1326460594312415,0.5718514271933335,-0.46320766558691984,-0.5322160686596592
45738,4.300,-0.9984703519938383,-0.008729917704660054,0.053875477610445664,-0.008841811942003522,11.773001392829512,-11.73109100317949,-27.183717739421716,0.0022617657467667073,2.572458220097911,-1.4085713710506225,0.5814077212673158,-0.4796264552796512,-0.5192694484898689
45739,4.308,-0.9985451793257226,-0.024532230419735977,0.04732943206069021,-0.008100578794535946,32.00578094598104,-12.83378451915423,-22.769629634153294,0.26867686829494103,3.8132250919631816,-1.504994676726274,0.5873775841302532,-0.48990228738572955,-0.5047015538086366
45740,4.317,-0.9985965339391855,-0.035044973778910304,0.039602924622000185,-0.0029018233689808164,70.5257777264978,4.774149541478808,-12.448456694359363,-0.9767729798264058,3.1896916590995863,-0.541045219393824,0.6076282924637942,-0.4832334623551125,-0.48123904957521124
45741,4.325,-0.9991741299716308,-0.02682776506846694,0.029547068436664745,0.007635428191324636,85.4082644390659,29.08935821083776,10.45503959206587,-2.8489182930466903,0.44626116726222725,2.7925195865341523,0.62101291462983,-0.4631645640290911,-0.4739221972873269
45742,4.333,-0.9993564138027636,-0.012409911469131993,0.023898180343113907,0.023698718634055482,36.066878728571986,13.67101647408666,0.17575152357903592,-4.36376241564139,-1.234536884165383,2.8684698549025422,0.6462528375312339,-0.4345329790222577,-0.49223533713373524
45744,4.350,-0.9987004169402944,0.003553803805002734,0.015319822356995135,0.048478353156317044,21.681124573094408,5.177393168576961,11.567651085399154,-3.2412627864628014,-0.4166095910673312,1.697801731396371,0.6679561947439432,-0.3816943516218843,-0.4853877343035844
45745,4.358,-0.998225769335764,0.007823032774772566,0.00955517832497004,0.05824785111406085,15.257931726546145,-12.17258137236601,20.03958933619724,-2.5100988349491398,0.4184273360775553,1.4599361881587969,0.6899650176786275,-0.37243417891002956,-0.49024394486162226
45746,4.367,-0.9977308466890396,0.011440585059729504,0.004720379463141761,0.06618148227705299,9.292664091294512,-19.379527130509395,17.46533896347831,-2.0237974560694805,0.32745831526714014,1.2350995054867764,0.6939839407925166,-0.3514604155298766,-0.4884708994511451
45747,4.375,-0.997314111508663,0.013585744347326276,4.494675416495294e-05,0.07197213708098898,-2.0705857440002045,-22.726297140115328,13.996656865502157,-1.474839834831884,0.5111930652095295,1.039292100895019,0.7067207612910916,-0.353100283567092,-0.47360401304785765
45748,4.383,-0.9970956493372877,0.012433455118593471,-0.003684000246016274,0.07504734111648644,-11.892854729259946,-14.486023098356199,13.077616584606238,-0.6774196850592075,0.8760303021481421,0.43977938954309503,0.7087571097298255,-0.3379225700385253,-0.46627743440773906
45749,4.392,-0.9970131187047605,0.010594499148171548,-0.00387537003637475,0.07640405241535343,-13.891752369902044,-8.48811702600001,7.445591286043174,-0.2578611238052288,0.41563916093019465,-0.2749327229082032,0.7079045149214193,-0.3417371136659226,-0.47455550601660773
45750,4.400,-0.9968833756596407,0.010883697179657013,3.7174470151787084e-05,0.07813500551737719,-8.694313273366163,-4.527498439273872,-2.8467898212672202,-0.4168138818514006,-0.589790520173085,-0.7325646314564629,0.7119268612288454,-0.34100386719886977,-0.480715095212384
45751,4.408,-0.9967763537937262,0.012863180949473639,0.005538804348800216,0.07899848568125907,-0.7862911925294924,-3.5490996301193616,-6.561017328589729,-0.2981869236878092,-1.1621690170008556,-0.7549191746814179,0.7122121184740215,-0.331897590384936,-0.4894408474689163
45752,4.417,-0.9966790161665147,0.01596413870338485,0.01163019657603679,0.07899888313394807,5.355459446088271,-4.447925113353211,-2.960117080809686,-0.1218738787555852,-1.4903366278234103,-0.6761424700224794,0.6902200989144743,-0.3344854250341116,-0.4984686461760273
45753,4.425,-0.9965353834802497,0.020750133299338544,0.019228968283724456,0.07821066563248034,11.348347045584424,-3.612013460238297,-0.9892878312600165,-0.019816435624590466,-2.0463667402055954,-0.6882354846478888,0.6884604087080562,-0.33261838371092417,-0.5157588473371937
45754,4.433,-0.996331595889982,0.02575015406478399,0.02648274724309447,0.07719420117742185,11.841715239497397,-1.9017288703746367,-0.7758189652684438,0.04306250997306154,-2.046857922278295,-0.5870637306600025,0.6837723419378098,-0.3303078499696736,-0.5278251863959829
45755,4.442,-0.9961583429323011,0.030183733293375543,0.03226304604623972,0.07560816034440425,6.858892584680601,0.14067254239341045,-1.1199144812616324,0.18507708951714696,-1.7314013818930112,-0.38480501861933103,0.6864471647140974,-0.3390349716445928,-0.5332524009948032
45756,4.450,-0.9959926876747495,0.03474244427318728,0.036109734518209514,0.0740784431354927,2.0258176541813495,0.8525956157191268,1.283970383790333,0.19286612106762333,-1.4670154800660615,-0.0068655217148790625,0.6730218454269824,-0.32943874535155215,-0.5492377685884069
45757,4.458,-0.995821283341892,0.039970224664005564,0.03797698309846727,0.07280179625775149,-1.5271010464123467,0.6741259419859252,3.6176252216877134,0.10357571903637575,-1.278365899167762,0.45940572743511837,0.6681005794474781,-0.3256850259711413,-0.5488693559770178
45758,4.467,-0.9956632504740118,0.04513185555923401,0.03823808306867708,0.07180289877532525,-5.036673125561353,0.8095171324457126,2.745463477411841,0.06791076401849777,-1.0211493579122704,0.7434788993845176,0.6669659231272687,-0.3205077576856064,-0.556106393947167
45759,4.475,-0.9956713714678197,0.04875246871350418,0.0370390782758923,0.06992727303565144,-8.089288771593397,0.4226176295513382,-2.349984971704388,0.32242131594146856,-0.5370046626004483,0.797384860422042,0.6710403131524418,-0.31712776636726975,-0.5493855674805099
45760,4.483,-0.9960609787958172,0.0504908231343325,0.034676936296604705,0.06411484530604275,-10.36725755818962,-2.2547991526621787,-7.530179249911334,1.3508082141583135,-0.1420227471321219,0.7835025324697167,0.6644718039192226,-0.32493214277005245,-0.5556684314799883
45762,4.500,-0.9966745336439479,0.0553803139413355,0.029752413161333754,0.05184292357164894,-12.874368572161362,-4.868294913696407,2.6383894621784845,1.3949601372349125,-0.2639415848031918,0.9145460929982597,0.6586402468083339,-0.33359492716592304,-0.5566274298030842
45763,4.508,-0.9967725246802988,0.058452158223041416,0.027979296653376173,0.04738183407504857,-7.553104626193488,6.018220874711511,-7.128511048804415,0.9576146512940488,-0.4255661725667704,0.8619689946565241,0.6565515511127524,-0.33928545222551026,-0.5666714528826997
45764,4.517,-0.996904583495258,0.060878053915840454,0.021688288606360812,0.044774234721478734,3.2773072451409515,9.004507397594868,-1.8134744004701122,0.6123408218649158,0.4485092000504503,1.5617114705963377,0.6667783716809332,-0.33930508895954625,-0.5513638153883709
45765,4.525,-0.9970665400896941,0.06125128338192596,0.011389922680787999,0.0444619452898687,11.90289344630599,8.099411382882352,0.043654917908223075,0.1774242456987072,1.5288765370586965,1.942648434434381,0.6807162304589605,-0.3425651882999409,-0.5443919864171275
45766,4.533,-0.9971856223456427,0.06205676442381171,0.002296381089195567,0.04200618061993029,20.346230804023143,10.447205347838882,-4.155558313292607,0.6681164715793672,1.1750937499311236,1.8233176146408432,0.686817823101551,-0.3459290559163036,-0.528112090900055
45768,4.550,-0.9970167156847956,0.06650214831654402,0.0039432732538242,0.038981835647313424,72.69463747096914,-13.125438623522367,-17.013460744114468,0.2485689914887294,-0.5819272864728863,0.22249673164889047,0.6829061500321066,-0.34600776038129505,-0.5294082171153444
45769,4.558,-0.9973197828567321,0.06545193380211896,0.011647678182815955,0.030555305220434877,36.73872945512839,-18.774448963265986,-23.061973987048766,1.9109384455787368,-1.3451258866387992,-1.4277418182115722,0.6648643036614356,-0.3573584771413998,-0.5445829315594158
45770,4.567,-0.9977236078316173,0.062363955045256485,0.017327550630234157,0.0189234107848378,26.667258114359353,-19.270608915655433,-17.723218864261923,2.793472683299581,-0.7983115520229034,-1.3364622284255079,0.650676673532882,-0.366452300814269,-0.5351510820747314
45771,4.575,-0.998018388941722,0.05837970591270907,0.021292447272584298,0.00988620052700745,17.634050901297808,-10.28801277296613,-0.2937120882945485,2.2193558216988594,-0.26327560036248493,-1.2104788308013528,0.6374611808782555,-0.39364596973003535,-0.5514211708625307
45773,4.592,-0.9988542828224618,0.04353658303388147,0.018459107928257133,-0.007344995538002811,19.79118962611088,6.241697365352312,14.462050728365998,2.3342968354349116,1.2095886488658694,-0.8202802537426007,0.6244164799637169,-0.42952924336867976,-0.5404548851899402
45774,4.600,-0.9990151305858344,0.03598053989569263,0.022138235381353667,-0.013567171539528838,11.848850143764372,7.2502907318592165,25.020826597100278,1.6924201544440864,0.48231363402014216,-1.7702483332776349,0.6134693087651922,-0.44357140552508084,-0.5377889551435765
45775,4.608,-0.9990262416021672,0.029862780942964868,0.028614124315933687,-0.0153627729994799,-0.4114421980903253,11.243836361773171,18.69913040145061,0.5914985002372886,-0.0977453064458336,-2.0975797550364117,0.603238359266382,-0.4510556945198043,-0.532026403620978
45776,4.617,-0.9988901648167334,0.027581479602999795,0.03476213505187049,-0.015789065265064108,-6.295596872131372,2.582351982097886,11.874836651996896,0.11885162319518697,-0.6474544066183288,-1.428923033110505,0.6040402419785853,-0.4518175178298957,-0.543321634770436
45777,4.625,-0.9986951400717073,0.02945671956251929,0.039350153011255294,-0.0138522318692501,-12.146338762920413,0.2473699890055729,5.329415651874657,-0.5520028374796833,-1.0316126500088978,-0.5124703234723448,0.5986129831298466,-0.45153319085784654,-0.5493091480172152
45779,4.642,-0.9980868312518063,0.03841811420698779,0.04694437810316871,-0.011956217922675596,-9.86528136454216,-1.1243885787148948,-4.375631594238701,-0.40325125103325576,-1.3693204716769436,0.07374327282385944,0.5913372925885748,-0.44146122474279476,-0.5782724286715544
45780,4.650,-0.9977036966141151,0.043030457199816574,0.05011370648453852,-0.014977647949087201,-0.22619189856581676,-6.921116956876558,-2.0618306147414063,0.5344377084271805,-1.3981302669988749,0.26103156962367485,0.579141791925248,-0.43748400263732123,-0.569438269281416
45781,4.658,-0.9973092961775275,0.04721097982679701,0.05277429088514008,-0.018978023164956434,5.9796427390168585,-6.442568954072201,-1.613322553014447,0.8030258383773797,-1.274440588896334,0.2883002497993844,0.5810696988203785,-0.43798113570939956,-0.5923335262371066
45782,4.667,-0.9969364485868473,0.04993799473724113,0.055449054048552986,-0.02343750340350717,10.531649454809738,-1.677456264484546,1.2125970476904677,0.9367306229448391,-1.037105580182787,0.04948404752587095,0.5711972183122054,-0.4399698255265599,-0.5913435660606419
45783,4.675,-0.9965607434428833,0.051285922897435235,0.059464226185331044,-0.02646591289388208,12.036137842123237,3.506860615329682,2.6487714219752085,0.6354127438329185,-0.9938558631491925,-0.42807277150859546,0.5688548716612118,-0.43352641726588387,-0.5926673868865471
45784,4.683,-0.9962470642877136,0.05125558668334832,0.0639924472899223,-0.027741997435396817,10.83275984415242,7.853161215525668,2.747818947241012,0.2315373135904515,-0.791135863513801,-0.7636060843199948,0.5549259628777392,-0.4399394921674903,-0.6001365395531328
45785,4.692,-0.9960554325558463,0.05036212068612147,0.0681257878922084,-0.026383879548861493,7.586941803117753,11.040748967730545,0.9189950120010733,-0.35111883638126296,-0.5109692494918511,-0.8673523398342192,0.5548704342056903,-0.44064767482356665,-0.6043406816236042
45786,4.700,-0.9959743436351308,0.048938041261333706,0.07176321414462646,-0.02214082278749562,4.072745205582854,14.243487495134687,0.205335948449166,-1.0365676207480363,-0.25362577079857795,-0.8946773913482106,0.560799360451897,-0.4320385310817111,-0.6148010792871741
45787,4.708,-0.9961514183805432,0.045861672243359644,0.0730853005372477,-0.01541419874192512,2.0906075116667027,15.16672237305178,-0.1710620610432353,-1.5429138663847024,0.476099733302927,-0.7977241156154526,0.5626600968009932,-0.4355168635990752,-0.6096745479286312
45788,4.717,-0.9962389039155689,0.04294818788181165,0.07450621396533118,-0.010598281149665,-4.082132139335672,14.743539485634614,8.907004869420705,-1.109524558382433,0.3877275800722406,-0.7686880487543233,0.562823794396572,-0.4324105026277543,-0.6092075408132996
45789,4.725,-0.9962452273942904,0.040384727379144066,0.07639643471786492,-0.0053014574421140544,-6.465337859831319,9.59588490653596,0.7497813193485584,-1.2200495108702325,0.25489503280393305,-0.7992796631484633,0.5665303813304376,-0.4256147595550711,-0.6130807988571744
45790,4.733,-0.9965383746302817,0.035214386767682,0.07528157087934047,0.0019748265118028165,-6.2626178670273855,-1.4439519718119365,-6.180680498159101,-1.6198052090173758,1.2548756473681253,-0.7207419603218349,0.5623721326438395,-0.41994929830646033,-0.6056579652343483
45791,4.742,-0.9968789366642188,0.028530704648348313,0.07341185457915772,0.0053929708634948914,-1.981545637342738,-5.621478657831567,-0.9861173419491513,-0.639405268381952,1.5481069266585088,-0.8010753127240737,0.57396050767185,-0.42867817649741063,-0.5992650756877068
45793,4.758,-0.997774047110244,0.008390929879771407,0.06539915182586845,0.009974675405964443,4.563441630318536,-13.15297983061371,-13.58359939506671,-0.28365789684469733,2.464858409451571,-0.9649430378254367,0.5884115400870242,-0.4373712942523508,-0.5685872585055614
45795,4.775,-0.9983824558764125,-0.016206678467567088,0.05348527303510885,0.010447054110743533,21.217855620353227,-18.390524477980033,-16.49932468784295,0.26703919000863097,3.1290546170703233,-0.9533838178822143,0.6011986704838108,-0.4743131713142003,-0.5311724861562094
45796,4.783,-0.998655499916235,-0.017288304836441618,0.04667536723499729,0.01448161235551021,47.96704870585664,5.104814761408342,-1.1140203081780702,-0.97371452512568,1.383374409960986,0.9283629936966264,0.6201488858869769,-0.45766178125855655,-0.522602056760984
45797,4.792,-0.9990456412629373,-0.004250066754018855,0.037788954369653446,0.021488102144253344,56.062516336072065,18.952752226578177,12.768283752223901,-2.1020064971595467,-0.6971007671965035,3.5020372976959373,0.6354988229416824,-0.434221831723201,-0.5225708392460634
45798,4.800,-0.9990751499608005,0.010485574913697433,0.03144143691638191,0.02739221594115124,32.82333884884784,14.067572927152632,7.88394614414089,-1.9097324832294946,-1.4263350335985556,3.3468414618442175,0.6390254948940984,-0.4148504194282224,-0.5343445380703367
45799,4.808,-0.998870746834716,0.01948594794544879,0.02811847193802097,0.032967870516531786,11.41066449562119,5.078452370661028,9.24961398780546,-1.624510486574201,-0.9135626800173633,1.9013272256643654,0.6504084945656009,-0.3968256080894074,-0.5321294778087098
45800,4.817,-0.9985830693458853,0.024490252430331455,0.026677025968639894,0.038992530529813815,-0.6297860703386117,-2.0484525636825315,9.29669415440846,-1.6162615020811797,-0.4839425726263626,0.9253939275519399,0.657001088883445,-0.38045503197375063,-0.5409712819627582
45801,4.825,-0.9983536081891017,0.02763226681800328,0.02413367904600844,0.04409190835068157,-0.8883765373663327,-5.976725428119488,8.208223298042002,-1.3086387226375487,-0.011756787989310742,0.8499816861873922,0.6630071682407632,-0.3816424674839003,-0.5405386814994206
45802,4.833,-0.9982179230416822,0.029532730341491467,0.022137164444779797,0.04689074436679934,-6.550816993976671,-11.278773304631374,5.998431910059141,-0.7379359017380918,0.06222890083171123,0.6048840477505596,0.6652962344376525,-0.3680045242774903,-0.5285468347138973
45803,4.842,-0.9981974378806756,0.028511990100295957,0.021135958584593426,0.048396411888552274,-9.516140138507488,-10.395726340239863,1.7506878462571132,-0.312043419431519,0.38533453661691364,-0.00518866273710302,0.6731312412567773,-0.3709802966458358,-0.5314099029073701
45804,4.850,-0.9982016647643915,0.027282751798169184,0.02095723627602227,0.04909055065476501,-6.991168253882854,-7.923627820402891,2.1465607998418146,-0.13318066813118704,0.2759875421684568,-0.1700186336596297,0.6693043683077974,-0.3727936973150081,-0.5339603000927751
45805,4.858,-0.9981169517946995,0.027390614363225273,0.021623721582550867,0.050445212357404005,-2.3188501755775524,-4.3663705506319515,1.453586564624603,-0.32589634939913137,-0.08267172262676552,-0.1322695938564045,0.6732703973563827,-0.3721927959669619,-0.5314343384469825
45806,4.867,-0.9979934606733251,0.029060171729118362,0.022650589410254465,0.0514928118451769,3.541545419650996,-1.8308054534047256,1.6551376503618598,-0.3293531302223189,-0.4233555479899938,0.04988404713322337,0.6664928937463565,-0.36459771263214624,-0.5322272304102682
45807,4.875,-0.9977758331284942,0.03294631245926454,0.023927855810915447,0.05277674711809909,8.950863039084618,-5.480307851750964,2.196044378539562,-0.45035282515782493,-0.8614827535181728,0.34012425133993285,0.6666925148416826,-0.36358013919304427,-0.5352367960477233
45808,4.883,-0.9974368152158151,0.03863787635439526,0.026162115271249273,0.05424442724823607,12.39962677700907,-9.939451404254156,1.6727992544983912,-0.5827801527776171,-1.3244094936149609,0.44017708732074207,0.663720490975442,-0.3507916638707197,-0.5500832293614394
45810,4.900,-0.9966382635219136,0.04936443150030566,0.03150804414706348,0.05729369721622039,8.797534266967837,-6.272154292817438,3.30362759494459,-0.5713024227310939,-1.3378878097601414,0.3072240938492228,0.6640692025784821,-0.3296408548265477,-0.568239413860844
45811,4.908,-0.9962509024346865,0.05426521278272308,0.034334577916105787,0.05797036172944095,1.9666726642023797,0.42031034111488486,4.352252658752957,-0.3816874177945839,-1.2957207209147317,0.2224578449401614,0.6531115720289724,-0.32455841470797825,-0.5754866890480355
45812,4.917,-0.9959948447095723,0.058664529198863766,0.03605570233625228,0.0570326981202068,-1.8299193166957064,4.076900183895434,0.30253520432627257,0.0567929260406778,-1.0967045732601393,0.36921670141141333,0.6526160279662554,-0.32384129194289935,-0.5724251599148198
45813,4.925,-0.9959469855338927,0.06264839290791033,0.03648221285730479,0.05323372067630852,-5.851788802931751,3.3919693172960588,-4.315178115450344,0.7494266614214271,-0.9098295653790158,0.5809299831956378,0.6489636049584726,-0.3304957497875735,-0.5752540662164458
45814,4.933,-0.9960498783737685,0.06675363242274951,0.036175400179018005,0.046042727676121054,-7.0312583498975325,0.07875426633580244,-8.721411190746839,1.5778475096351514,-0.9387441892496109,0.7718120306596563,0.6426915760455676,-0.3334858893418619,-0.5845635041443256
45815,4.942,-0.9959687149407854,0.07285170880413518,0.03447911356656338,0.03937179334476092,-4.84192339735262,-9.366629626844972,11.485977076602303,1.388869402487542,-1.0594007749349974,1.3316716099568064,0.6347295445365931,-0.3287754207693356,-0.5806866264756083
45816,4.950,-0.9949750808324086,0.08196659209563378,0.026907467343939905,0.05081392037528318,5.589851629200256,-6.474407376015223,57.08789576975488,-2.9042177150355273,-0.05104577172086406,2.689633670958365,0.6581616545049226,-0.3050099567489805,-0.5776128539130505
45817,4.958,-0.9934072018993534,0.09278811896482274,0.019993968677148838,0.06428637032844087,12.034118912871065,44.989974262582166,-2.802676718773106,-3.480591558513452,-0.38372222130584793,2.8172328805946885,0.6702099799886616,-0.2674796314801493,-0.5735316151910379
45818,4.967,-0.9933116414046974,0.09365489470706287,0.004351550232214897,0.06739293551917809,22.000306185518546,37.28135894579791,-31.621645441596872,-0.46132843205663643,2.3220010446698596,3.0140907384245574,0.6871407414397139,-0.26974897770844947,-0.559649052683964
45819,4.975,-0.9930904063893876,0.099754760797239,0.002264345432537889,0.06176815664571176,27.937809127985986,3.53488091999534,-2.664993024085431,1.0995265777330863,-1.0423692263522142,1.3755485193206178,0.6876222651182075,-0.2756076083230532,-0.5540324582242772
45821,4.992,-0.9936094460332151,0.0936906746239971,0.016529590923108024,0.06073795243488999,58.67779666265411,-46.943385047187164,-37.00197242734952,0.10217670159218126,-0.5468189462206826,-1.780442573948184,0.6698271141125159,-0.2873124164111962,-0.5697462439869226
45823,5.008,-0.993698465621553,0.09722908695981702,0.04403316787417878,0.03421906189972349,11.896494565299019,-24.872355788855383,-22.665608953243925,2.7790964603525925,-2.9550179925321425,-2.1564448847512088,0.6202614587061627,-0.31422367239979165,-0.614335961673859
45824,5.017,-0.9931008205510081,0.09964128834949752,0.05623342981477011,0.02569387569508031,-2.319454477137617,7.856197434114143,-17.9309775822104,1.6589160453978125,-2.6566853402808466,-1.78918075532782,0.5993848412762176,-0.32652044172697836,-0.6255426311939369
45826,5.033,-0.9941843389751819,0.0908078940139809,0.05619580487728718,0.013908919275806446,2.5203080710351102,15.728880802488497,-3.9793890751807437,1.5292729148280597,0.5777202077607291,-0.6895194729585433,0.5952305588179088,-0.34244928194060287,-0.6198556263612178
45827,5.042,-0.9951021446771341,0.08556220210624384,0.047498334436024074,0.01395490793601872,2.3064460692815456,36.061201215654826,8.946285007227331,0.30152830824513693,2.3365875640947316,0.7024064141216981,0.602128276137817,-0.35001754494841103,-0.6123911904251151
45828,5.050,-0.9955738238076488,0.08431925754009746,0.03931048649160542,0.013330784249140705,6.38804176556018,34.38540498393899,13.61662605913787,0.3524002762099765,1.5095820591662685,1.2582023537481337,0.6100887447913792,-0.3456736208449875,-0.5996600985185394
45829,5.058,-0.9954000133714519,0.08808173809138421,0.03558167545499264,0.012424377921283352,17.635706316437037,15.397809652781472,28.31906993568815,0.1523007844297493,-0.08764999011749328,1.2804218876871638,0.6102207637919616,-0.3587983072773452,-0.5989396526568482
45830,5.067,-0.9951975828944386,0.09119758739675232,0.03318477484806039,0.012788345176884952,22.15267558395132,-4.493962782085049,19.774182245779865,-0.1384945982703364,-0.1496308081413536,0.9266288114865632,0.6151596156770065,-0.34645332437308385,-0.590635491678157
45832,5.083,-0.9939210368840867,0.10354809345525794,0.03288420748254817,0.017815546000289745,14.405079126436757,-19.72049109114342,19.254010565935143,-0.8081131422068017,-0.9597917527927065,1.0094465449066798,0.6128944650916384,-0.32609834255898223,-0.6085805631235165
45833,5.092,-0.9925090222280339,0.11384890199169395,0.03746729048689319,0.02367425721768365,11.121436935714817,-16.154266951441667,12.536625221955337,-1.8637056090120498,-2.3026298274625883,0.8147203114273011,0.6198551554954234,-0.30196633406952433,-0.6174870042321408
45834,5.100,-0.9906633772014242,0.12439229658722345,0.04633762102257255,0.031071763702657986,8.12742279186394,-6.194016836704999,9.795552958977819,-2.334303257132307,-2.969882255251526,0.07889285612458444,0.604481650813831,-0.27539511728071864,-0.6331302742711713
45835,5.108,-0.9887465610463673,0.13255225342216942,0.056787658795917795,0.03981582524783508,6.054924717944092,2.28629042399525,7.372944877405851,-2.6413000426953506,-2.731837831827212,-0.5752088018625372,0.5988157420337534,-0.2580302750209054,-0.6440334019931788
45837,5.125,-0.9929289382338274,0.10464931952429096,0.04975550082421289,0.025788246909756063,23.39830647427588,-16.006073216919834,62.72976845573017,2.179929345288368,2.7869281943800766,-1.580468105370936,0.6036938570173794,-0.30571478390184204,-0.6210938889671945
45838,5.133,-0.9947505460905078,0.08381810911216181,0.05459111016698579,0.021579766639950097,6.667476853131958,-101.32799402087969,81.09926445976843,1.4923346723414022,2.795340928258537,-4.17337138577275,0.5867522053810078,-0.34000464656431467,-0.6235722410225112
45839,5.142,-0.9924730467595894,0.08163303743028393,0.09109039597255088,0.00598651962392277,19.733172366335694,-48.73981439297824,-91.51633257496947,3.0576652692106356,-5.980124744285614,-6.799842099685105,0.5384794719746125,-0.35875567830605826,-0.6510376700087203
45841,5.158,-0.9950848529446527,0.06079549101755341,0.0679931841855033,-0.0385612579718259,35.16220544361337,12.487137419722432,-22.47550265869864,5.737417732298357,3.08670940146276,0.3231129246915158,0.5262970471771409,-0.4326842905036172,-0.6084946643394943
45842,5.167,-0.9953231062846867,0.07117394334324802,0.049577130718238424,-0.04252401667906867,51.79935038759911,62.45764622733771,28.28506295937527,0.9601184199756846,1.2848601832493034,4.903732003098964,0.5456890185612739,-0.434034404491843,-0.6066944596984576
45843,5.175,-0.9943102046503591,0.08395258060198436,0.036504753965747046,-0.054466357288962465,33.268741041678624,38.79542604494516,-20.547111275256967,2.709450407448453,-0.3116986818263181,4.483840720731767,0.5497201310719797,-0.42545032456096393,-0.5950085128470983
45844,5.183,-0.9925331062103984,0.09188011715052749,0.03337372120455126,-0.07295390244329261,2.785636232954944,2.4690886388044895,-2.8054519556485067,4.187267382022537,-1.4833959186003893,2.052118300332928,0.530850687800224,-0.440544064076446,-0.6023537454366237
45846,5.200,-0.9901028693133107,0.10179689734128136,0.02027260857926108,-0.09446015673621637,0.08230021485204096,-5.83327397792476,-16.6578451308341,2.5542363334589715,-0.10299456719239922,2.0286105501321314,0.5257767409290497,-0.4524723748896515,-0.5955137451396522
45847,5.208,-0.9898458751460562,0.10361364944877222,0.010072601254521649,-0.0967879011458167,11.010955382319757,-6.720118625980601,-28.341784309248208,0.7495275274942673,1.4229584798928228,1.9787460992311299,0.5367095987487179,-0.45474890471092316,-0.5788428301280056
45850,5.233,-0.9932607038479435,0.09793550901584283,-0.014186542362620983,-0.06033698932735587,38.16279973876377,2.44624837571229,-14.466365978900539,-2.563348043673047,2.2975485800293693,0.8278310111099203,0.5980707526772964,-0.41746874496531483,-0.5425212801418313
45851,5.242,-0.9940554819442544,0.09876115779848328,-0.01546825517040267,-0.04313543333343187,66.52340390307846,29.399329957120997,-7.75024603294879,-4.067887881253513,0.9481788458300879,0.10765823580036063,0.6145611763923294,-0.40077265436465853,-0.5379806849687873
45852,5.250,-0.9948715882213057,0.09722344018283567,-0.014869309890066223,-0.02360146716677407,25.975003955083896,24.148732508156193,-5.8319527644640345,-4.525881884273153,1.1164159251228023,-0.6451874230322273,0.6257234735641954,-0.37461443910599923,-0.5332481093099951
45854,5.267,-0.9949867065492004,0.09926506122344998,-0.009250800287714123,0.00789456171785027,7.30736908621207,3.1926018776422307,5.70172681941745,-3.8120654269494723,0.13353546486033938,-0.5325178900389463,0.650324523703758,-0.33074255980758155,-0.5455000392206854
45855,5.275,-0.9946914840101818,0.10111373309541251,-0.009520727344480891,0.01655960047719351,-5.274880925282458,-20.89645910290351,4.1622681226643605,-2.122216176480973,0.14453621021595223,0.2452146202206464,0.6545388915397509,-0.3266543858331687,-0.5340941476938148
45856,5.283,-0.9947365867581134,0.09940061312297784,-0.01529594598234653,0.0196131362127387,-6.4164775616410035,-40.048442752846306,3.5205546593368067,-0.5048700730562348,1.3589159689253907,0.7218566141401282,0.6604939883861872,-0.3177877354462715,-0.5254726852540017
45857,5.292,-0.9950302700301604,0.0957952417991768,-0.020474755363957035,0.0178554687737331,-19.83323537982467,-45.733215052875536,13.011386847032984,0.6803171644880106,1.3664161863522513,0.3804317623924877,0.6646113049441339,-0.31787713653629657,-0.5219817852121892
45858,5.300,-0.9954050083753859,0.09276292045902655,-0.018278577961490627,0.015159270325988463,-31.004295182911378,-28.497800246011277,3.469526148513365,0.7296459023105379,0.04715030715536703,-0.8385609576977053,0.6535325237137818,-0.33344118879684936,-0.5128479674821245
45859,5.308,-0.9958943950686926,0.08903213259542914,-0.01259340200321736,0.010442196237322185,-15.307398559210627,-9.083428209082072,-5.895529768048337,1.1455966395327644,-0.47758760060666045,-1.5418740810568314,0.6460490800201394,-0.3440067749519173,-0.5239276917128814
45860,5.317,-0.9965156567105192,0.08291116745727896,-0.008307759994464826,0.0036421649535349175,5.614344571142974,4.102462967649951,7.143084522548841,1.7869126985416635,0.05559234602152612,-1.6476060119621518,0.6413251477372065,-0.35251933401077634,-0.5235939305136338
45861,5.325,-0.9969742299383604,0.07762734378687279,-0.003302341204922355,-0.0023398457160069717,14.911412070445856,11.63288352120042,10.3288068616298,1.526794946705406,-0.1634153548777814,-1.648907314342362,0.63638307525615,-0.36755400579530295,-0.5155377068678965
45863,5.342,-0.9973708763394115,0.07110832958530419,0.010233877298883861,-0.009497802323386925,8.607413197239735,11.201799891542574,-1.250075913957466,0.8589904155493302,-0.7001964876333914,-1.6635731420565418,0.6229620008737862,-0.37627761443816,-0.5347462084679276
45864,5.350,-0.9975167020371736,0.0679221405594315,0.016295092292381973,-0.009026735062528544,0.5916184489904144,8.255974232749743,-11.293782278453092,-0.08800693030280474,-0.4332117572364041,-1.5835986255170407,0.6053352382353053,-0.3841321184628956,-0.5380957605553691
45865,5.358,-0.9978120636472587,0.06261901902818559,0.019727026933861264,-0.007796698294673507,8.051121980698506,12.081357457722119,-11.828952493407904,-0.14502571587515373,0.38822845794989763,-1.4886890388031464,0.6091113599072718,-0.3793894024864214,-0.5372715838728878
45866,5.367,-0.9982507637515697,0.055104723517507385,0.020231960069162724,-0.007039169498365171,13.974022745006147,5.928732874947864,-1.3961349093015736,0.0926756846527628,1.232373496982765,-1.334000012277401,0.6042101472496345,-0.3949909716990152,-0.5398812051482517
45867,5.375,-0.9987528234274854,0.0462052024240028,0.018031893612857616,-0.005720819636918926,17.54547742009761,-5.359963975240968,3.6740996692241525,0.04649346028015936,1.9326394555888489,-1.101991024441289,0.6150165957194375,-0.40189575259575955,-0.5162475635887513
45868,5.383,-0.9991676210234746,0.03770577544565134,0.014475274397995374,-0.005727654619106689,13.084860551265034,-14.381885596217302,3.470660150501547,0.34344362290654845,2.045385914439191,-0.7744606169637037,0.6152650791173094,-0.40842680543042964,-0.5078634111947481
45869,5.392,-0.9993647529373796,0.03289137562818816,0.011834895302259835,-0.006941415481073492,1.8226324249465549,-19.110334885726964,3.8783832566690197,0.4976874045106816,1.2175761976413457,-0.30677235321603596,0.6189857301042879,-0.41730415244236035,-0.5023198490774883
45870,5.400,-0.999398658133354,0.031722298189336744,0.009659163272991099,-0.010135012762887967,-5.75345747947804,-18.805380243878197,0.4938324079712086,0.8044817261095971,0.4558598049139802,0.25370962606214786,0.6132529543172767,-0.41505444294809624,-0.49536415970819897
45871,5.408,-0.9993048160367618,0.0326058363185479,0.007962945411018177,-0.01622761794236332,-10.091609173316167,-13.047932084973022,3.8790365270024303,1.423555594900745,-0.07535941371814048,0.5708191673742766,0.6048308895028739,-0.42828289765642197,-0.4894234927134867
45873,5.425,-0.998903621914315,0.036535224723379035,0.004491785451492162,-0.028923266487963364,-8.381108851196247,-3.3722203865266365,8.081549283494391,1.4331901341231978,-0.2586802323524622,0.7625792301971158,0.605085083493038,-0.44177061552582036,-0.49194688915105045
45874,5.433,-0.9986711184575088,0.038724595377146606,0.0027322871648974853,-0.03389598027131855,-6.6605286446090295,4.269340875943613,9.507202321528068,1.0909835003553376,-0.2418616756282169,0.7745722859466722,0.5974548404641409,-0.4279717503573653,-0.5005220752361305
45875,5.442,-0.9984692244643952,0.04069344882300435,0.0015439169243372513,-0.037428162403328566,-6.250073209336982,8.099957692675842,10.179341428291451,0.7706216393639922,-0.25417216797158565,0.6102775172565107,0.6018817207556646,-0.4387250788014859,-0.4856832358255485
45876,5.450,-0.9983381047059076,0.04192418460408269,0.0005318236443714977,-0.03953616826541787,-5.958257273871283,9.10568257292819,10.071009471314413,0.46227538682440883,-0.10930272358190654,0.42568040455862155,0.6014542020746179,-0.43060955509964655,-0.48833480089487424
45877,5.458,-0.9982899388793404,0.042592116830359315,1.5275464123037127e-05,-0.040038847171865434,-5.380327271403804,7.8878264492808245,8.01633830296301,0.10025692109793116,-0.04169457283021831,0.2115464245529721,0.5933945476165025,-0.44452831224604356,-0.48022688802978675
45878,5.467,-0.9983091543669838,0.04288092141875919,0.00022171098694232476,-0.039242957707015386,-4.7330553061181435,5.8417772357033275,5.91237705988745,-0.19946412131334862,-0.053914796561717555,-0.0014252954825419357,0.6028728811863308,-0.44516848706216194,-0.49205418283551705
45879,5.475,-0.9983932690258881,0.042687652167520594,0.0007179767361037475,-0.03725760627888161,-4.214993996184956,4.6662316349612585,4.00433343652446,-0.4641195119004192,0.02076749749604428,-0.15847857821488345,0.6078329734043219,-0.44409008937607347,-0.49292516535239783
45880,5.483,-0.9985310614183448,0.04185006577398465,0.0010487791146168426,-0.03439754991035759,-3.8103595958663625,3.9382124007701838,2.863987963193455,-0.6424510385452056,0.18775284762018243,-0.25700836700020513,0.6064526354834048,-0.43625713613025224,-0.48698163162814306
45881,5.492,-0.9986907735440451,0.04078003176515285,0.0012413260203864743,-0.03085752674698644,-3.0620556829812315,3.3061508090916547,2.5273437430161527,-0.7919648803649332,0.27516990861262536,-0.28846847147578686,0.6065300092839169,-0.4298673685235912,-0.48649946622280604
45882,5.500,-0.9988397493901151,0.039829589681909215,0.0012695381067110705,-0.02703973182297198,-1.9352226354903421,2.4808474241820133,1.7282860470075592,-0.8606440474255443,0.2927247643453905,-0.24498129427593918,0.6099274022721503,-0.41954859238853137,-0.47668524783465477
45883,5.508,-0.9989468907884625,0.039590460126990544,0.0014283233172657668,-0.023144432235380773,-0.5526178376719658,1.6204903653552822,1.308795151429381,-0.9093811153683449,0.1550193505573667,-0.1508971776960884,0.6212515577904052,-0.42572012681822285,-0.4791694995452282
45884,5.517,-0.999013229585917,0.03996325145475835,0.001598512500699216,-0.019311923862351272,0.4862633696462076,0.4766762020921026,0.5012980378781059,-0.9197057042194815,0.047504650344724536,-0.0479116798341722,0.623507993388791,-0.412312869929847,-0.4803093533748839
45885,5.525,-0.9990433908416632,0.04077928285092814,0.001542137385922269,-0.015715442024943765,1.0651166026566068,-0.1834269055134865,-0.24866690240535996,-0.8797101669808467,0.0025342627863781213,0.06856332563347833,0.6231905039693988,-0.4129852921499133,-0.4780227184303097
45886,5.533,-0.9990505541716519,0.041702592681862875,0.001054531834158397,-0.012560729896681833,1.561387472138058,-0.24695462271583954,-0.8903317417025962,-0.7753061561850085,0.03939996151612603,0.1715024680412024,0.6358306384897934,-0.41263471385393724,-0.4819774337207253
45887,5.542,-0.9990439139381497,0.04258886927610908,0.00021635725594130732,-0.00986911477608293,1.7920143042565326,-0.6872365317169631,-0.5667902650620774,-0.6607117910828396,0.08725891068852759,0.23464314661453542,0.6353059427264867,-0.40408463784303716,-0.4652776030273813
45888,5.550,-0.9990301343265904,0.0433365113358004,-0.0007780983795492021,-0.007754486156311135,1.8068721677105164,-1.2217621414240696,-0.9493833845792492,-0.5170895247831971,0.1146960426704641,0.2524393109603537,0.6371135967309249,-0.3971029089973324,-0.4769973217004855
45889,5.558,-0.9990150116460652,0.04388038034785487,-0.001678680851898978,-0.006379714487131755,1.2341461099369713,-1.9068692208975442,-0.3086914099133636,-0.3348709200576722,0.10667049926931922,0.21712647752181677,0.6440970225059154,-0.40159163136082704,-0.4754969611269971
45890,5.567,-0.9990064274442193,0.04417004286972079,-0.0024096864783628045,-0.005418362215754084,1.0044326062378215,-2.20087321687252,-0.40497523228401494,-0.2284561185444396,0.10600693125094243,0.15584583907797875,0.6398935742059602,-0.39783791198041624,-0.4710407031028001
45891,5.575,-0.9990047019479896,0.044234748417889116,-0.0032328395148238866,-0.0047372214310133845,0.5819150906812028,-2.4568308627806705,-0.5057455028494144,-0.15184347168412055,0.14941003780784481,0.1398953219892601,0.6421688904333048,-0.4039719294580667,-0.4781328974591768
45892,5.583,-0.9990052891809644,0.04421661293335515,-0.004038385428762737,-0.004124896639717233,-0.03123579542988375,-1.8829097818168976,-0.46528809825309486,-0.13231584882721342,0.15760857678626952,0.12574692313928112,0.6545375568588782,-0.4004613495367546,-0.4721249016065634
45895,5.608,-0.999012904404763,0.04378637747897404,-0.007148697372230939,-0.002205925182071167,1.2051761741975335,-0.9706814056213632,-0.05531022424080911,-0.13096707392211598,0.21846836393409524,0.14403851565981596,0.6557012677118064,-0.39305400849099154,-0.4696026104463894
45896,5.617,-0.9990101502740641,0.04372783516372847,-0.007927627394711076,-0.0019361831463138163,3.5339024347755634,-2.4062680380661616,0.37277292136500717,-0.05014348225777227,0.14658941628114608,0.12273359402578003,0.6584901228761637,-0.3984530229855581,-0.46389542680050916
45897,5.625,-0.9990101027928445,0.043606337655802706,-0.0084931434935276,-0.0022734000255959573,4.316907710138931,-3.254499491992117,-0.9928776949449084,0.09355923784832497,0.09964782308252884,0.08693222239257285,0.6544979563517708,-0.39681491146437387,-0.46790405503781884
45898,5.633,-0.9990163054608793,0.04334594426772028,-0.008752618041142817,-0.0033079020936189535,4.893909757663055,-4.471534885679278,-1.1199706099977087,0.26081222540846527,0.04579060514192485,0.027100795559984518,0.6616016824600467,-0.39838325862956914,-0.4691514554838379
45899,5.642,-0.9990385799380492,0.04256970673023168,-0.009232716162877097,-0.004949021774420419,4.774477439325183,-4.712006769915229,-1.6999346614039557,0.4286381058207294,0.14691629101405476,-0.005688689490332073,0.6595801369359399,-0.3989931000866179,-0.46259957486163
45900,5.650,-0.9990642292867236,0.04156870022583542,-0.00965674363579209,-0.007032511899248098,3.6644403161031525,-4.252457348480598,-0.8815780066495154,0.5421543934934412,0.15858829910300612,-0.04160722456126628,0.6635246718377562,-0.40580847989333724,-0.45808683051056087
45901,5.658,-0.9990852310739519,0.04050424871828206,-0.009897873370332246,-0.009494155487496927,3.0502876444879607,-3.2626973568345217,-0.5490711154718013,0.6322541020934652,0.12479789710601297,-0.07564595191995241,0.6581157980258175,-0.4133124056220967,-0.4677957128371285
45902,5.667,-0.9991003424653636,0.03930135115375775,-0.010128938602792332,-0.012300979061160334,2.30130713217903,-2.5549967865353747,-0.29595085007952304,0.7195849647433549,0.1330855560122939,-0.09166676615213251,0.6579272553951648,-0.40860369356560144,-0.45859119138446763
45903,5.675,-0.9991001734939887,0.03827749774485516,-0.009910155985688958,-0.015344878592345405,1.307318242988115,-1.7822453545719819,-0.30589250114166894,0.7632487957688779,0.01917566942956275,-0.13477609881428962,0.6595403549202419,-0.41903869111769393,-0.4658149778267183
45904,5.683,-0.9990826467948947,0.03753037677772675,-0.008739097920410017,-0.018680574396073686,0.7482011596390382,-1.5335466648665002,-0.39824734995606265,0.8107179590026253,-0.1974380359009456,-0.24605217608171684,0.6514879964897855,-0.4231608690120858,-0.46811914009879607
45905,5.692,-0.9990498946736119,0.03682580438138925,-0.006635859215102246,-0.02234129487711058,0.8276794239623374,-1.213128883898737,-1.0515203068124916,0.8765720569266516,-0.37262435176487724,-0.39182600066930445,0.6392927993655594,-0.43131758022687566,-0.4694479519315944
45906,5.700,-0.9990030171024918,0.03583849969915348,-0.0038243872934917663,-0.026342889387107486,0.8224504559384557,-1.5062138046405245,-1.5559700901237932,0.962372001331015,-0.457070618300043,-0.5518917032025153,0.6375163780892364,-0.44113203969688575,-0.4731020325711493
45907,5.708,-0.9989218155009589,0.034515395977419865,-2.518950804851292e-06,-0.03104664153245924,0.2524466039755442,-2.6050310193687314,-1.5068240077911759,1.1328099785982377,-0.5971821759898578,-0.76426908264688,0.6327979251647273,-0.44947649320072824,-0.47376073772406957
45908,5.717,-0.9987698073457127,0.03303765401301523,0.005165251737531293,-0.03661564592373001,-0.6878528371494956,-2.536191912594913,-1.669866401348212,1.3312415718137958,-0.8309150044970256,-0.9986528011144026,0.6156483358703347,-0.4423571496879237,-0.48562186611372543
45909,5.725,-0.9985107333567291,0.03164225906023444,0.011539422703378124,-0.042917648312144153,-1.105204961165248,-2.7573783310079865,-4.148188912638983,1.4906723460984654,-1.0761946132596842,-1.1718588649790456,0.606077912208771,-0.4597810596786924,-0.49757450096798345
45910,5.733,-0.9981454063566948,0.02990029220608475,0.01790943516521154,-0.04990964262627743,-1.0558784412185798,-2.50789296613598,-5.219050680175617,1.6682691774856178,-1.0423005425538263,-1.2151114411942527,0.595719394985359,-0.46417686792009993,-0.49699494578628645
45911,5.742,-0.9976659058751854,0.028545434324030648,0.02398766644602013,-0.057205684087969465,-1.2666371661788165,-2.6810904015618093,-5.769553947793349,1.7297011696258853,-1.0660853368057908,-1.0935443381724976,0.5794470248450457,-0.4772444006663805,-0.4998386984134956
45912,5.750,-0.9970741793547756,0.028172589289465737,0.029052567290490723,-0.06484854979534731,-0.2788597917692885,-4.019254446266525,-6.873393127614012,1.7873705780892601,-1.060798290946392,-0.7493448868784676,0.5713415223091667,-0.48920847191559613,-0.5182454717315119
45913,5.758,-0.9963478774109392,0.029036711487679133,0.03290084595716024,-0.07324828257372999,0.37875275129331926,-4.217359786580219,-3.267649266735603,1.937253053555686,-1.0714525027714095,-0.31976587271754864,0.5720310017375565,-0.49735975605344557,-0.5220846836772317
45914,5.767,-0.9955278350241579,0.03092020845664495,0.036543915518959,-0.08144208150369314,0.24389816084779803,-0.879878878419649,1.8699192018701718,1.8577727038986407,-1.1926745995773678,-0.11111303676379355,0.5467518722652535,-0.5003714463866483,-0.5288001399682984
45915,5.775,-0.9946340360433124,0.033481778471517024,0.04092832745433213,-0.08892118345122481,-0.26771236273157084,1.9225375261321747,3.484924000511804,1.6597446779408416,-1.4126079514175982,-0.1220561444881579,0.540204842860632,-0.5086622592364757,-0.5278983704242661
45916,5.783,-0.9936652524282454,0.036469998679877685,0.046197564784651715,-0.09573447822477124,-1.4448361238610432,2.8692876863744483,4.030890876267178,1.4797694826717027,-1.6194285710934166,-0.19793422359733864,0.5284515501015412,-0.5136249649059506,-0.5461603509892863
45917,5.792,-0.99263522789419,0.04008249455908072,0.05258449775421944,-0.10150649520748628,-1.800719291182218,2.719110019111907,0.029191621444563467,1.2014902488560462,-1.889669466814655,-0.2775910957914454,0.5067806969687462,-0.5170980278752215,-0.5582190584569292
45918,5.800,-0.9916196246098385,0.04374626020646,0.05840117818187464,-0.10661185296936053,-1.466696401421067,0.9477809800845115,-4.56784639476864,1.0495964187777513,-1.775936112310201,-0.18731916011327115,0.5005663975032414,-0.5089896877663537,-0.5568799635473268
45919,5.808,-0.9906061734220151,0.048192762554221204,0.06285934059827811,-0.11147004133458789,3.0611061512851148,-1.9225114232628497,1.8243374031909128,0.9896714926672954,-1.644478528103209,0.16484340293705418,0.4937019796208028,-0.5071566503631452,-0.5722822802998322
45920,5.817,-0.9915867911618954,0.04834711449252925,0.050527008828882114,-0.10892756075625872,33.77025232858823,4.949928135267077,16.236636303704962,-0.4295142647039544,2.3027210520540904,1.9230490309628445,0.513843154284848,-0.5034529010758401,-0.5559889475272394
45921,5.825,-0.9944816800283599,0.052361225983754346,0.0237493651095723,-0.08775225215537875,13.146094277161717,17.6902858238595,109.2140570700829,-4.764757421569492,4.908351392545965,4.660392644257446,0.5643462106764603,-0.48446399942309093,-0.5398217049688192
45922,5.833,-0.9949754079519901,0.06590326702952094,0.020375577124350137,-0.07256399122468736,45.67567812270366,84.9757071018192,42.803181288513066,-4.020914512487015,-0.9910048644253221,2.711415989501724,0.582417563503119,-0.4514670970627669,-0.5496876525356922
45923,5.842,-0.9955396759068638,0.07994777416614728,0.01658096806897681,-0.047267098483315784,17.64495053393372,20.821595538222816,-5.2094643384427695,-6.419126866677736,-0.6186717962941762,2.7296288263952424,0.6077518021342486,-0.40978953008856733,-0.5464521379617175
45924,5.850,-0.9957572057422236,0.08383942045382231,0.01386189210171662,-0.03530420283431925,9.001340761647839,0.6441045698946885,3.826300951930551,-2.9111844180708233,0.3126936848017714,0.9772922433887198,0.6241505093191949,-0.38708458353629566,-0.5503232231388249
45925,5.858,-0.9953937541819713,0.08995789262225712,0.02350449744639744,-0.02337499284013136,11.920260748431623,-1.1275672117698046,1.4851474129156976,-3.2483371478116827,-2.144890672641073,-0.7408992835202219,0.6198170176165285,-0.3626933118857651,-0.5656742134971784
45926,5.867,-0.9954150337822185,0.09070476163739798,0.0280281026186398,-0.011661140606597837,37.236313194314675,-27.865639722393823,-19.711243758821407,-2.8921471418620346,-0.39761314554513244,-0.7584163246833596,0.6326116210614856,-0.35283766490280455,-0.5671772927605994
45927,5.875,-0.9950679872461135,0.09176088802879655,0.03767472822313041,0.0005050143059195776,61.056447680147166,-45.320957100851004,-27.59751408845372,-3.1225834716887597,-1.2784431371687934,-1.5985614032319035,0.6271833379040074,-0.3315438141145924,-0.5863020566253798
45928,5.883,-0.9941477856009286,0.09484445783873083,0.05141434608257115,0.005592335732858353,36.88730746345167,-20.23511840787195,-19.976467459831717,-1.603015027222975,-2.5743961456509408,-1.9384644149317327,0.6070616238017991,-0.32243226775256545,-0.5944188970876398
45929,5.892,-0.9929535264474917,0.10012882964783816,0.06289248857815155,0.007876970819545435,21.41982356576894,-7.291141881075993,-10.761320280508192,-0.9537018980079506,-2.7018070971529564,-1.170075554611216,0.6038251740545737,-0.3153700779258381,-0.6169030551857877
45930,5.900,-0.9916778179179222,0.10589306037936413,0.07261586858788782,0.009418112457792694,12.596122198442728,-5.184473906597816,-12.53719036856358,-0.7494229356737518,-2.5334199780194546,-0.7808563385274293,0.5862988173561476,-0.30306452601849615,-0.6296895281418458
45931,5.908,-0.9906488313274878,0.11014684337748634,0.07968220133902369,0.01154611074023415,13.490973074192802,-1.8748346586674434,-9.685748494411849,-0.7853934121495252,-1.820472509429675,-0.5545204999316935,0.5817825516021817,-0.2938330876785273,-0.6378200183738556
45932,5.917,-0.9903526539482553,0.11038751422878607,0.08205035700108285,0.01685100697381122,13.532967950537714,9.043007648260906,-3.7809274618918134,-1.3249913938851368,-0.24496809801202382,-0.35962341837196954,0.5883230878841075,-0.2880119740159646,-0.6503708219415499
45933,5.925,-0.9898768770269368,0.11146155035226739,0.0844452230123321,0.024271288199547807,10.68383210274706,17.88414717541151,3.2762157007131893,-1.8477309934887665,-0.3289260852029212,-0.2209215008460994,0.5896886929129456,-0.274205925254538,-0.6446615943953578
45934,5.933,-0.9889055212816616,0.11455763338225765,0.08930072859804619,0.031109459724644226,7.701462784767295,19.793498166025504,4.290909943580531,-1.8196885926535216,-1.1049444920311091,-0.3417254056986602,0.5800372696598071,-0.25484888014550233,-0.6575915100668749
45935,5.942,-0.9877935915504413,0.11677165165596107,0.09613642395814083,0.037228884618789766,-0.3108207377672544,18.606405352385593,0.2922909545122374,-1.684198900825821,-1.2834751369408308,-0.8426777183538917,0.5804387992492145,-0.23952988138892656,-0.6665855555670991
45936,5.950,-0.986139893933048,0.11978339601602853,0.1061103379388905,0.04382515048552433,-4.086112013877091,12.736252101515138,-0.788147772854077,-1.9011858806679596,-1.9103061266497414,-1.2820041410813983,0.571782054505466,-0.22605828722150215,-0.6769634983286805
45937,5.958,-0.984163064309584,0.12360801217562853,0.11642385507175639,0.05088819258914444,-3.7858655755701403,5.663050933691832,-2.0528912478334918,-2.038926138549033,-2.1050817010795395,-1.2126522232486017,0.5548061552018215,-0.20739872814350918,-0.6945562754200918
45938,5.967,-0.9821274346018378,0.12812347063426927,0.12512753622820835,0.05790663306134184,-1.7246202741128962,-0.73636704197616,-1.112112134764252,-1.9948683696547884,-1.9916621316664096,-0.811572433238247,0.5481114573081377,-0.20364500876309838,-0.704287245593287
45940,5.983,-0.9793847605590704,0.1347626209508344,0.13236205302069237,0.07158780412375913,-0.4167990921145449,-6.356464724752796,-3.4258869495797093,-1.7848997403910987,-0.9970237915173825,-0.05993029569987708,0.5521043295696229,-0.17753867764242304,-0.7134161717666516
45941,5.992,-0.9789646248166648,0.13616494306042165,0.13066694431935655,0.07754689743091721,1.1434445067915402,-11.22608299177494,-3.4423499496507945,-1.3830574330043635,0.14344999573008876,0.6270905684759747,0.5520018463757463,-0.1714851211457952,-0.7119109196364629
45942,6.000,-0.979092922322378,0.13638372974584345,0.12573173378730856,0.08347489944693731,3.750614925723955,-11.123152386617084,3.2372388006857076,-1.2571800577675616,0.8521077520748159,1.0565088923616823,0.5590129950619114,-0.16145961209178697,-0.7084324187770558
45943,6.008,-0.9793394719965579,0.13586454566095713,0.11936555756073151,0.09048142068989097,3.356551164069574,-6.492903803209439,8.048983395808927,-1.4601884923392507,1.231942256613984,1.2336166833714646,0.5720372261384206,-0.15400214342407106,-0.7042746711263688
45944,6.017,-0.9792502302417627,0.13579546611040777,0.11396415340891665,0.0981873194109161,2.7311810734461948,-1.0257687961115864,8.530121335154584,-1.6676036271015053,1.0192370019912969,1.1275073904335422,0.5795624711145217,-0.1366926983343039,-0.6909714026973456
45945,6.025,-0.978647533685759,0.13691193784400874,0.1110576329431056,0.1056897736380116,1.7571626614102362,1.8032902838668443,7.928236226728693,-1.7205082697735374,0.41868893970288584,0.8221547163763916,0.5968132406175897,-0.13213054105391084,-0.6922654718395591
45946,6.033,-0.9779004673059518,0.13753784634568553,0.1097925205586018,0.1128699220110511,1.8952995587272001,4.062659974104314,3.4538691090797355,-1.6877710641013526,0.26599179289841945,0.4327216195461546,0.5962576443016108,-0.11707623253534814,-0.6886976455540669
45947,6.042,-0.9770824601975123,0.1363494256896804,0.10981151770238345,0.12107902654204951,6.311151685772396,4.740340387280304,-2.630320402579363,-1.9417792984313915,0.46418108750519704,-0.05901598143319113,0.5951738590062402,-0.10943820517155105,-0.6860285745017508
45948,6.050,-0.9761960130131513,0.13364511845037813,0.11122751269657198,0.12964862865046178,10.905240548724427,2.6069182451889628,1.1542578911511339,-2.044924323761613,0.5719582529652157,-0.5385767427178545,0.6006730989204709,-0.1006073152206639,-0.6879857344897913
45949,6.058,-0.9753022827658243,0.13004913987466665,0.11386127486313136,0.13750741265900593,8.017275563977718,3.045620629313516,2.109374072990686,-1.8970908511244264,0.5554421571650207,-0.9097411369338165,0.6008948295025508,-0.0985364079064499,-0.687033165759914
45950,6.067,-0.9740579454080665,0.12697728378555453,0.11770535426623605,0.14571663586193362,7.074182162424196,2.429228097942411,-1.3313775227762796,-2.0302617251606287,0.2903444073584601,-1.0707196546110267,0.5984753877275067,-0.09520830072609732,-0.6903264572074769
45951,6.075,-0.9728736197569369,0.12429690902764752,0.11996981385582821,0.1538650127566556,7.157698292129785,-0.5003488405985533,-0.7906313541865099,-1.9806420618171754,0.4232557342561013,-0.7067681027396143,0.5998407283980546,-0.07677400088919807,-0.6923013406937514
45952,6.083,-0.9714951599947134,0.12344785480073987,0.12181921031244959,0.1616102139432807,6.076172152150498,-2.743794571785533,0.3799260646732778,-1.9064486247797703,0.10006939191830168,-0.38383232104439285,0.6001145893212851,-0.06916279385240849,-0.6878876612937656
45953,6.092,-0.9707124597735064,0.12499901594035304,0.12493398790611289,0.16273925500716585,8.173248353962807,-19.80991718435571,25.061084679258784,-0.3838478001564253,-0.7045700130411333,-0.4013240398746578,0.5958588186271211,-0.07133028584961898,-0.6948245137156812
45954,6.100,-0.9718713859437769,0.1243692723739278,0.12598665298096604,0.15532435914419881,22.05253254223589,-35.640723425188526,40.4957313524256,1.7761516558959285,-0.18024883324845264,-0.3924144707459826,0.592128185789441,-0.09419791087996682,-0.6936736697736829
45955,6.108,-0.9744732228117203,0.11535481031470736,0.11881592869741735,0.15158489650346924,22.73260094700003,-46.355334551695194,11.041289876786877,1.2502162991821635,2.692164793319277,0.1674223488551938,0.607809820927116,-0.09577695467019563,-0.6870080445292763
45956,6.117,-0.9771648935639808,0.10749345710111011,0.10848564833173656,0.14773216160534874,24.253794541932184,-52.06081318111392,-0.8115727301566695,1.332609117258426,2.8825282955018574,0.9473816818204257,0.6198116219467176,-0.11275370168199177,-0.6690375775768692
45957,6.125,-0.979543686463676,0.10382388232574365,0.0954248102194109,0.14355790943919225,59.147217131881256,-51.861674568580234,-10.75443556246252,1.386144426588977,2.407841571978257,2.052839471234527,0.6396741582924964,-0.12029865739485446,-0.6596358457718097
45958,6.133,-0.9820926111948383,0.10222567012020813,0.08088038455117022,0.13602344944837239,65.34403101814628,-35.7437826423388,2.918941893980767,2.1741087036677103,2.107459692375448,2.6112955384719685,0.6497950935621987,-0.1406464556159846,-0.6338988210566966
45959,6.142,-0.9846551855671665,0.10089259063190802,0.06609982547740956,0.1261176584112118,58.86631582500924,-24.950539512853556,19.40757719791273,2.731565638579924,2.011040781047065,2.6868967936551496,0.6630155910720252,-0.14815389437680623,-0.6153987266897901
45960,6.150,-0.9861086482276988,0.1016715043195762,0.0545651562584543,0.11947921502263653,64.24865510489091,-9.095949783114952,30.771447650518393,1.8107490633720906,1.2457031568364105,2.3533137195788227,0.6749952969230446,-0.15828125766190412,-0.6105618103535027
45961,6.158,-0.9871585405908496,0.10321875122871678,0.042582290316891286,0.1142394576523205,47.69697085308422,-3.097101395820047,23.02907261709784,1.4553735087005053,1.2040787632818266,2.5473461937593993,0.684412554645247,-0.1680974736479453,-0.5894108661245585
45962,6.167,-0.9878143622274937,0.10394592602841089,0.03024077937386308,0.11181916428791187,34.55154249248317,-4.430348483215073,23.236657472668266,0.8125930704650538,1.513169237248171,2.4939539565113975,0.6992686739093632,-0.16841931757203557,-0.5766512567781367
45963,6.175,-0.9886012272721908,0.10024694007868003,0.016614559264844647,0.11109509827717384,30.50692948310949,-3.2891183626716827,22.093506295069403,0.593581226786573,2.602038477637707,2.1021095615729126,0.7207636837186523,-0.17647753005895045,-0.5568775141126703
45964,6.183,-0.989643313809039,0.0922641943181792,0.003277474617802489,0.10992128110612226,28.64247643975323,-11.274066857906327,19.28267964924043,0.8605000558313668,3.3535345663085403,1.4394471729061296,0.7333527927736511,-0.18978101867135833,-0.5251291186802487
45965,6.192,-0.9904016756778447,0.0821845228906068,-0.00898997197631795,0.11076734814748347,25.920630521040454,-19.785800243226593,16.69721372643677,0.4450332450748788,3.680608865396332,0.9141681772559371,0.7377495076003131,-0.19500298750190584,-0.5092934780853683
45966,6.200,-0.9907791139679204,0.07084463027927927,-0.02195077920151522,0.11338407726828945,20.371993447125167,-22.09078270256617,14.187797024845567,0.08489760310879976,4.093275135382694,0.8471908382340293,0.75839078303271,-0.20456520987496743,-0.48317292015687285
45967,6.208,-0.9907368204806016,0.06016861755189434,-0.037052788220273365,0.11596284271690666,19.43348591175731,-25.500601345051734,9.308720717012019,0.07609577249046444,4.2682390674361015,1.3590595931714684,0.7807633524333051,-0.21123387737673724,-0.4566127459309888
45969,6.225,-0.9902683389219707,0.03987487488714754,-0.07517018452362016,0.11012744726062139,21.37488688238585,-26.215650505106016,3.5023156758128047,1.3606060326825908,4.4792231968831615,2.331868649630878,0.805242026414511,-0.23311426232705265,-0.3828301985598012
45970,6.233,-0.9897285415522068,0.030453220754142845,-0.09634172166779403,0.10113499912852177,20.746040018725147,-16.921258283477428,3.5162355267747794,2.7226828693570444,4.348235471270009,3.0446620650381675,0.8179056645183433,-0.25986076826384635,-0.3446501130640877
45971,6.242,-0.9886669989614912,0.020890705702092394,-0.11822931514850164,0.0901275353000616,18.130669043475425,-10.478424799916288,4.1434319847345975,3.184061118738318,4.383930746665987,3.250157106189622,0.8268279791996419,-0.28322552636627246,-0.30531730638053173
45972,6.250,-0.9870225185234452,0.011786045183839768,-0.13922753242873875,0.07914121101148676,13.434584073241023,-3.7677498272772265,0.21869275736881202,3.13333743469228,4.180647206868205,3.1588865916269784,0.8349493918085871,-0.3060233870406312,-0.2596469616835536
45973,6.258,-0.984832191047272,0.004005732080337778,-0.15858981365310093,0.0702764583129045,13.291919722184883,3.9613931888928553,-6.877910362762793,2.5432609392056906,3.8326243620294536,2.9559800866858295,0.8328342121435831,-0.3210491187161554,-0.23349643138538767
45974,6.267,-0.9818801681565416,-0.003915244919265579,-0.1784926252877522,0.06353258184577525,14.275337192497172,7.69357649271538,-2.4156011291205584,2.0606232484562894,4.080452371375826,2.94071881867897,0.8308057403797617,-0.3385964337169281,-0.1914970598252188
45975,6.275,-0.9783473658199708,-0.011142628927697096,-0.19811182471880195,0.05885557340040818,11.61254102295297,9.81362356094219,-1.0650216887698054,1.5310085935264688,4.060059853693867,2.8871115501867775,0.8419204209615977,-0.35423551988156304,-0.1498225918010553
45976,6.283,-0.9747459351018235,-0.01764724565436143,-0.21576562059605073,0.05480997803400259,7.714034036380371,9.832177546700677,-2.0275911016467765,1.3357353788369333,3.677649637808764,2.5998646605678406,0.837458515674852,-0.3577908003478876,-0.12078122059312124
45977,6.292,-0.9710348430372574,-0.02405039836083617,-0.23194862975450634,0.05208401963463254,5.969136900781658,9.683388197813466,-3.622007889646232,1.0425869514301374,3.5257927919305554,2.269709727882263,0.8363189275190498,-0.3674443378558527,-0.0848869603855155
45979,6.308,-0.9626626624312814,-0.038916309750327865,-0.26241086671240516,0.05391341416918273,4.405171695476591,12.04924597689128,-6.021637979233558,0.34198298797751603,3.8115859298088486,1.7176030527387618,0.8452911077226987,-0.3727450111513917,-0.0220146855368423
45980,6.317,-0.9583635094425885,-0.04749476279316465,-0.27574914067778594,0.05697405279220811,2.3687868234755003,12.095038782392571,-7.35132446199165,0.014036598429776602,3.865560813584866,1.0643184998302735,0.8441885577724909,-0.3713894700862255,0.0044537810526946
45981,6.325,-0.9540272268481019,-0.05644783439224799,-0.28795653081222045,0.06104693921514014,0.9875304508658838,10.222181446576961,-6.996051915194327,-0.14921925077991566,3.8300742911894856,0.7354345472538601,0.8495722212494902,-0.3622384927272792,0.034740802155899926
45982,6.333,-0.9495880525415107,-0.06552649290816863,-0.29949716801784343,0.0655000423424973,-1.1321021914407876,6.388000879060447,-7.100915402305938,-0.20772814238419454,3.782776295723713,0.5736937096555784,0.8421581616270957,-0.3548365787584566,0.064300565905843
45983,6.342,-0.9451198426070071,-0.07390109904184719,-0.31047913537541477,0.06992722765452698,-3.5394673552878544,3.5211228236214063,-6.438865574982758,-0.26985694010846256,3.5853604950882008,0.5750773333253214,0.8540876200550436,-0.35588272904059715,0.09145514981075646
45984,6.350,-0.9408404890751474,-0.08054959477198206,-0.3206934657776966,0.07407184287161053,-4.86802932947221,1.9046011902081061,-6.318048307491152,-0.3867531880769244,3.156355622532763,0.6884137642575187,0.85162458290826,-0.34311931752924896,0.11246136621961984
45986,6.367,-0.9321174159779398,-0.08971252405241063,-0.34119066315814484,0.08183958230868123,-4.9558911294282115,0.3451559395193828,-7.034080619032953,-0.5714601892163718,2.811234548101408,0.9934725392175798,0.8496654907276077,-0.329390216716783,0.15915819975104817
45987,6.375,-0.9273900568779447,-0.09346268448618511,-0.3521231438169443,0.08498058955449492,-3.7675731259138403,-0.7950733180961992,-6.678073104441512,-0.5401502805024201,2.7455300633582267,1.3052518136412257,0.836653543933102,-0.32843889460160786,0.18176890806740073
45988,6.383,-0.922469576572236,-0.09701215211001667,-0.3632616865134497,0.08763258385456313,-2.0616775577547437,-0.7192135204321988,-7.4151846808509445,-0.4727897265804061,2.7227199398756645,1.4242874779767192,0.8433868842739979,-0.30983648920969203,0.2093401680775823
45989,6.392,-0.917149697188986,-0.10057040438994215,-0.37491443890077286,0.0903393060119117,-0.15620067153535988,-0.5174401433510403,-7.365787399623323,-0.5032221509409894,2.831110639506134,1.5234056783361971,0.8420095793841135,-0.31300367442799953,0.22693334341084473
45990,6.400,-0.9116921997330049,-0.10393700179082319,-0.3864784410058147,0.09299917871919401,0.5929889071770218,0.12213591379834766,-4.7414066611892185,-0.5179126909517785,2.796606927043916,1.5436120762705197,0.833744448627915,-0.3109650145177335,0.24945414823202933
45991,6.408,-0.9064272250541443,-0.10697384964089256,-0.3972763324071088,0.09548715559072943,1.1389485118266012,1.6034620679362441,-4.248089564719921,-0.5010864202571234,2.6079848526487983,1.4612986732653557,0.8304313541115993,-0.3012632634326939,0.276062906087964
45992,6.417,-0.9013265041180331,-0.11028937189052788,-0.4073005840257502,0.09773956043814105,1.1581215965855147,2.3494310382787162,-4.0934537561870386,-0.3921883008931071,2.5148710114783963,1.3145352319999366,0.8221836277523507,-0.3068179303412124,0.2998200349653961
45993,6.425,-0.8962026988565691,-0.1143104841883262,-0.41688365870022864,0.09980907211042041,0.9000063884264137,2.5535346819758837,-2.7453258426935334,-0.24915032915859361,2.5536768268938523,1.1772853365324705,0.8236221553057207,-0.2765859082940831,0.31047397839613605
45994,6.433,-0.8910950997478758,-0.11897390274224207,-0.4260005936255286,0.10157867838429487,0.09266186586842068,1.9417431520070718,-0.652009062286885,-0.08874443176273404,2.5677120326948706,1.0574314861617458,0.8116159903479176,-0.2912021514715229,0.33315594943101356
45995,6.442,-0.8859682891413541,-0.12419530115169965,-0.4348781452909652,0.10255104366153968,-0.19473388465914016,0.7422452754248124,0.7223635881884843,0.1493204576908922,2.5602982676486987,1.04542703915418,0.8035099861634916,-0.2814109992964582,0.352426423327199
45996,6.450,-0.8806083883952509,-0.1300752095152001,-0.4439371998046711,0.10261125078218125,-0.8596663659576274,-1.4150208815038936,1.600211836514921,0.40522924860168263,2.636537667281301,1.1209602181301097,0.7973945260089252,-0.2753020456297842,0.3706037334344364
45997,6.458,-0.8753166584763739,-0.13600676048199836,-0.45271661590743256,0.10183601611546997,-2.7222573258461114,-5.553989429063735,4.5465219650181705,0.5821092566533166,2.532325622359876,1.164735150134669,0.7865328651560366,-0.2766433770378548,0.39481986410945075
45998,6.467,-0.8707561977559128,-0.1414261674769218,-0.4602196495503851,0.099900737685846,-5.523875945770588,-10.265949880070728,7.761236688989568,0.7868442233529319,2.1185534812717477,1.11459990759182,0.7758901044517206,-0.28784386846094795,0.4167666719235101
45999,6.475,-0.8672051237366013,-0.1468667662142735,-0.4658866354472413,0.09661816215597148,-9.467794183876412,-12.83956819006321,11.2307890295597,1.128409645633501,1.6658563632804742,0.9237394365546119,0.7695454399525287,-0.2860805954137286,0.4273000724132442
46000,6.483,-0.86492923002503,-0.15260508862620736,-0.46918471725551003,0.09205875877701027,-16.012047665330865,-15.136293225120806,16.34668633468168,1.5220484714234934,1.1625971349741093,0.5982377338300772,0.7680016213517297,-0.29638149133078345,0.43203293279155525
46001,6.492,-0.8644032900987613,-0.15807732631600438,-0.469373219655821,0.08664462846102834,-22.376814966341062,-17.29659031644049,19.914895323430226,1.7922392029972904,0.45625984400893255,0.14018569674973794,0.7533107813448553,-0.3074138771988601,0.4299029707458253
46002,6.500,-0.8653541617800709,-0.16310724988396755,-0.46697513813005037,0.08057555518654545,-23.343219267272158,-16.26086848963453,21.51618230583671,1.9747787358128637,-0.16263491486889792,-0.2180498441018797,0.7546836786276486,-0.3150250842356497,0.4348672896458107
46004,6.517,-0.8668275917568419,-0.17270246128498584,-0.46270835215366574,0.06844535690886208,-15.797672555131772,-12.994278702984975,24.29810880183829,1.9264555750735355,-0.13889295415783734,-0.13940804722522718,0.7447054717496329,-0.33945754339913065,0.4366194433071978
46006,6.533,-0.8670210765949257,-0.17842675425921156,-0.4615005390384912,0.05878433951216235,-4.151816487976841,-6.9697009288887255,27.459437866911653,1.3432461839509875,-0.04843727672535886,0.1967985765900116,0.7383149305363348,-0.35154501965835044,0.43898099011140246
46007,6.542,-0.8673003058214231,-0.17995923225945953,-0.4608558686498655,0.05492469915831209,2.7965459019328454,-6.731877941357506,27.35264046137528,0.9728683531636975,-0.19376134614952586,0.21014626494273664,0.7410459839480595,-0.3630333510855549,0.43428752966333783
46008,6.550,-0.8683204547458314,-0.18095715445309998,-0.4589014353097289,0.051803173579429866,4.762769365883434,-6.537597000182526,26.413627714164132,0.8209878830345294,-0.4757011251674405,-0.06132538819663851,0.731881900395361,-0.3590042448420974,0.4334179643882692
46009,6.558,-0.8698908960920733,-0.1818128903367919,-0.45584921122290434,0.049349756138887514,4.4679603152724665,-4.913535266238355,25.362285159174633,0.7277987773735627,-0.6619843503324542,-0.3295276107075505,0.737501172510883,-0.3738385636676595,0.43069609883921317
46010,6.567,-0.8722279180168838,-0.18229452171601088,-0.45136372575225964,0.047517927767338465,1.9815645659355243,-3.8504927509767684,23.57374058678037,0.6257739698225804,-0.9515624000865703,-0.6227873795253401,0.7297540997848306,-0.3728013534945214,0.4253638164304661
46011,6.575,-0.8748041244511683,-0.18215912370660373,-0.4464985433237193,0.046635268879508994,-0.18852298393590644,-4.542472021479069,22.17193753110387,0.3773740971548008,-1.05255894617099,-0.7429161374622658,0.7383639435057335,-0.37911417315222196,0.414432654888517
46012,6.583,-0.8774119741169291,-0.18176465868861874,-0.4416295964338303,0.045531704138275245,-0.8362261774311153,-5.708740897023184,19.771579258338903,0.3827856104115015,-1.1072341493490434,-0.6837279274643054,0.7401179291762474,-0.3840267511997439,0.40718412911398105
46013,6.592,-0.8799307763363129,-0.18072584472714556,-0.43719901567941566,0.0437837708835499,-0.8596105874615635,-6.831453538064474,18.039178824724676,0.3935554840905482,-1.1778023074332686,-0.4512719064326881,0.738189605050579,-0.38678796095202916,0.39661619300579737
46014,6.600,-0.8824793030825628,-0.1786541958064268,-0.43315810268419197,0.04107330070379498,-1.2107822238191135,-7.908260462669394,16.386986044540247,0.4149430415930162,-1.3407496490031734,-0.14086049954038332,0.747014104015303,-0.3846401056888547,0.38663884260932035
46015,6.608,-0.8852386501703542,-0.17544216651308805,-0.42914900680850177,0.03746609679483445,-1.3238231681828776,-8.779886931374316,15.05982155357798,0.42600973285149374,-1.590343259091647,0.10858443479892692,0.7452721548693579,-0.40000380499044297,0.378021187793331
46016,6.617,-0.8881653538549955,-0.17179836829063003,-0.4248904329190524,0.03340276752258174,0.006391894408129069,-8.388540966414682,14.518632103388347,0.4650854810452292,-1.7356938547934968,0.17499471128685185,0.7443297038689896,-0.4089956169033752,0.3700067708033506
46017,6.625,-0.8908426661809182,-0.16877766406460767,-0.42077098870381074,0.02941461014164811,1.131026539383846,-7.569001902499468,13.723217745107533,0.52967009402318,-1.597781537505664,0.11826763038177324,0.7454688401015225,-0.4084036556643315,0.3544384257967146
46019,6.642,-0.8955724845840345,-0.16537687761137942,-0.41236883800935387,0.02350222641166898,1.1993201130501008,-6.546566441786557,12.17036187048628,0.514385076986221,-1.3109126873009322,-0.1751301039548904,0.7524949529136349,-0.4271419192073159,0.33634908290627563
46020,6.650,-0.8975003982151311,-0.16442140008182032,-0.4086087116344775,0.02230603450252696,-0.09465960650814433,-5.392116433641996,8.221444686414674,0.25439089534975967,-0.9761515420488385,-0.4000725988250187,0.744018340067033,-0.4412734824537421,0.33312791469448044
46021,6.658,-0.8992187556400333,-0.1638115915270767,-0.4051133058692035,0.021321383498296678,-1.0437249423428716,-5.21291771362109,7.051222436851869,0.24988310233619843,-0.8462215559264173,-0.41851930283622524,0.7529416203556348,-0.428213133300433,0.33106525199038866
46022,6.667,-0.9005034683115791,-0.1635930557350027,-0.402393074131947,0.020263996761317078,-1.0902798886913174,-5.464347660851401,6.194328993761567,0.28575469105397105,-0.6402491678267441,-0.32333085903662334,0.7466625884097037,-0.42982266797857865,0.3215091677345667
46024,6.683,-0.9016773650023017,-0.16418102665119202,-0.3996111163973342,0.01826131380658806,-0.7195179096487374,-5.709420325709261,7.01161157625937,0.29204305004738473,-0.292061425475411,-0.15968326761318313,0.7559008643477132,-0.437657377740431,0.3213742007839974
46025,6.692,-0.9019290215624809,-0.1644131594120916,-0.3989816076172489,0.017493709116023944,0.7789514548096536,-5.295114750988773,7.528737462768768,0.20802910305365696,-0.1440994444602224,-0.04925724782178282,0.7484947221493506,-0.43682403355831956,0.31102453070211494
46026,6.700,-0.9020165488865693,-0.1645806200532513,-0.3987382752238117,0.016945586717209336,2.738089369439492,-4.442644477304813,6.986726659775451,0.14212372423831401,-0.05900134494210599,0.0021544499020645005,0.745158999974168,-0.4422302316458576,0.3187986823679548
46056,6.950,-0.8875211208085024,-0.19459755504316198,-0.4176548305707516,0.0015793007819613271,2.4073107321534235,-4.577436806502696,10.04858677869105,0.21182387321261525,0.2505986782161332,0.04700474954813027,0.71446863541763,-0.46432725078595877,0.37698544849588134
46057,6.958,-0.8864910393135594,-0.1963919820679334,-0.41900319801784813,-0.0003829451790042457,3.69875971500587,-4.413773834387221,14.341258269729726,0.5613593448427651,0.3381859281124589,0.22307117200796925,0.70669346393607,-0.460661175979542,0.3800858857676896
46058,6.967,-0.8853429527605416,-0.19825016768204123,-0.4205482132670174,-0.001981749027437838,3.88644502080587,-3.8932499684831345,13.728834107361594,0.5002877539926867,0.5060550106910342,0.23519798371126266,0.7066664904308773,-0.46824556268932405,0.38306513482513405
46059,6.975,-0.8839868441715294,-0.2001968657520501,-0.42246667154154477,-0.0032226869727870816,4.963101935075227,-3.7710146928744313,13.729077561672533,0.4275340859919552,0.6152740927913375,0.2396310785088857,0.6972994597571865,-0.4654110755489877,0.3842142150436207
46060,6.983,-0.8825706457106167,-0.20229305278644608,-0.4244161872182438,-0.004180448709618871,6.109412287552023,-3.509908906539978,13.490695966542798,0.39331819721418987,0.670795788380194,0.1921782666556858,0.6983778854419589,-0.4678271340822373,0.3907174988630138
46061,6.992,-0.8810494774416378,-0.20472711977140629,-0.426398018005905,-0.004832698061934241,6.8273723035429965,-3.605109070917233,13.53742885089139,0.38012303838179107,0.7481858818028485,0.11526699512331937,0.6928316187006685,-0.4648871221499019,0.39863194179525163
46062,7.000,-0.8794267804446708,-0.20751797769053826,-0.42839081619953717,-0.005112276190182725,6.936310065259218,-3.869020881706223,13.290284974329815,0.3591261852118346,0.8393293114190349,0.027121458804901733,0.6894694080679842,-0.4663196111640285,0.4066586208294323
46063,7.008,-0.8776625690472166,-0.21071849099318188,-0.4304412895053629,-0.005140888634939081,6.7987347903372575,-4.04667439511373,12.883436421509161,0.36583945946066937,0.9303718940164032,-0.04719665417754627,0.6849520750507645,-0.45978680181332743,0.4129051287257833
46065,7.025,-0.873887651047392,-0.21789483022140677,-0.43453457609642054,-0.00468171831278648,5.475533051295435,-4.23016615713979,13.303781360927188,0.37246250155031985,1.0182273084684974,-0.12603369885602625,0.6836395418221166,-0.4607417944894118,0.42354640096906687
46066,7.033,-0.8719735211275994,-0.2216048193847844,-0.436502677125958,-0.00434687699906256,4.408391568540221,-4.223519306762951,12.862143624526322,0.37303085930250346,1.0244577971505722,-0.16875198280098067,0.6795889047061248,-0.45922708797823153,0.43020671006939404
46067,7.042,-0.8699003546614473,-0.22533915269557311,-0.43872645362134177,-0.0038390252890067953,4.1698500209845735,-4.212559364821305,12.265186559968068,0.33299283977546645,1.1032673626118983,-0.14941285215772698,0.6804402070737974,-0.4609886045094199,0.4273305865187535
46068,7.050,-0.8675696401414807,-0.2291598660452623,-0.4413598771408633,-0.003183417833285586,3.9796036275521973,-4.251784846133791,12.105671811099896,0.2976779545138307,1.209818135149728,-0.11286203748159218,0.6700801269949729,-0.45633002007487766,0.44451811127574326
46069,7.058,-0.8651012576953017,-0.2330208644166381,-0.444179017255583,-0.0024680580209797123,3.836321211106216,-4.333899350461734,11.937009043679431,0.2841373536622369,1.2676592195991143,-0.09244090757980813,0.6646152620432486,-0.45029258728022364,0.4504352518375026
46070,7.067,-0.8625144508255154,-0.2368770310245267,-0.4471632742393698,-0.001760812792936529,3.744451802309569,-4.221648486355357,11.166669385136716,0.27644374366272156,1.2990827417813215,-0.06408619336694968,0.6597217046567476,-0.43992735408412026,0.4619532209835978
46071,7.075,-0.8597693710780369,-0.24069613596695366,-0.4504010813216927,-0.000929855314131998,3.5059444940621813,-3.926928879666887,10.613411049456031,0.23637496474217884,1.363761549538927,-0.032254305361232215,0.6661293572723628,-0.4466103887718329,0.4714867197007483
46072,7.083,-0.8568843808461206,-0.24435942051077877,-0.4539136601482441,0.0001435284697057355,3.2941453178070996,-3.6907963219329525,11.277750594695894,0.15495027145845802,1.409781801767439,-0.0031734290476974625,0.6617608074500526,-0.4390242455460198,0.4824167464490447
46073,7.092,-0.854158714758709,-0.2476768090362801,-0.4572385884129165,0.0014005475787483934,3.015807483631039,-3.8524350604964037,12.827054694864044,0.08136883703445492,1.3344839029110134,-0.016696763006018748,0.6593615138820623,-0.43425295272650705,0.49300097564088663
46074,7.100,-0.8517825887119884,-0.2504750244790259,-0.4601311132862342,0.0028358888035650656,2.566291656062141,-3.684398337374723,11.940892918258823,-0.004311158946927327,1.1656231833644666,-0.05335966153322439,0.6586855697902045,-0.4325182565223262,0.4908887856828075
46075,7.108,-0.84957130647741,-0.25295957870826974,-0.4628398908829885,0.004391145343178908,2.203360015767726,-3.703919051096147,10.432600825407077,-0.061672960418221255,1.0905113217202123,-0.06216897449494335,0.6560003313318213,-0.42548113050657527,0.50449773880211
46076,7.117,-0.8473273273290043,-0.25521990823561497,-0.46568466449683377,0.006082109351382713,1.5909402954870024,-4.266052624180509,10.567823566727618,-0.1270400127336307,1.0877587516655722,-0.03493424119340488,0.6518798084960346,-0.4201787006950053,0.5081958071359388
46077,7.125,-0.8451508311594931,-0.2572108341600221,-0.4685086932093351,0.007890739407959512,0.7560715314526221,-4.4837693736285695,10.413657857553279,-0.18639163054815266,1.0539372328610064,-0.02258177143257765,0.6493372110915588,-0.4162926361955879,0.5131040511236672
46078,7.133,-0.8429383470751983,-0.25912636914068843,-0.4713959655023489,0.009711413604882329,-0.03823337354919159,-3.8439417179307864,9.065230386634873,-0.2035308626904312,1.0525003624047242,-0.00651312590209014,0.6481279970861729,-0.41347778578928757,0.5177781555878007
46079,7.142,-0.8407814581082553,-0.2609474635808566,-0.47419613869198746,0.011444780543255135,-1.2972699780754884,-3.87291538752672,8.664656335701459,-0.19634643923305578,1.0208863417931104,0.005059378435660814,0.6322303502204935,-0.403021394987128,0.525527272300432
46081,7.158,-0.8372068025261891,-0.264508711071782,-0.47845867785816126,0.014042975227485526,-3.061307160677774,-4.657062198224231,7.982005582986801,-0.08619009400845515,0.8424816546955485,-0.03616033368997685,0.6414804540291578,-0.3981999745456623,0.5365446505084316
46082,7.167,-0.8360254897441847,-0.2660530359642787,-0.4796458681324863,0.014731046657333288,-3.8197828017149495,-4.5450193130394085,6.856174790970748,0.04266731710804231,0.5579328648312379,-0.07501010528403433,0.6456599513104853,-0.3972271016515728,0.5462215329085156
46095,7.275,-0.8565153230786787,-0.2708937679722904,-0.43901074585968747,-0.016359487306227254,-1.0372877292659797,-3.402838328334367,4.48518511873401,0.6699505159062947,-0.7505288937621887,-0.1909654368695404,0.6454946909367837,-0.4604022278761638,0.4748622508064148
46096,7.283,-0.8585079427040122,-0.270450554384697,-0.43503443122798713,-0.023783473112149654,5.170081936374481,-3.8522701967395525,3.840563714055091,1.532787955586112,-1.3728255173848147,0.48980649117900377,0.6427728044353104,-0.4736145588825156,0.4783147213285252
46098,7.300,-0.862596638111041,-0.26834700120733385,-0.4271298910698527,-0.038431536753250596,4.974762791941318,-1.399464161139513,4.762802992922122,1.4256957473990741,-1.3952206457567355,0.5707978621416734,0.6291860960403066,-0.5004630765792463,0.45987893287861836
46099,7.308,-0.864539180983399,-0.26719417334724,-0.4233155779498089,-0.04453313080009407,3.725905026078384,1.6337160730807825,5.689870243634591,1.1779481384938078,-1.3188905034772045,0.4317283259679772,0.6185104652418354,-0.5226744030915017,0.45233426303841556
46100,7.317,-0.8663535782084033,-0.266280751975753,-0.419642097846883,-0.0492600077891864,4.039548041745393,2.6682251316342955,5.629599503541364,0.9476498025625845,-1.165195957374244,0.23207035557550795,0.6277778680177958,-0.5229336662525744,0.44723666053433425
46101,7.325,-0.8678563389102006,-0.26583971314697524,-0.41641680912336393,-0.05245629616007232,5.095466412744773,2.323119864135917,5.7224787239522135,0.7040916634023235,-0.9223371061286331,0.022351541664032273,0.6184954454115116,-0.5222147869714645,0.43919947000670095
46102,7.333,-0.869178104037591,-0.2656417924942679,-0.41352937096076514,-0.05438125499512885,6.721180294105272,2.3539153771957038,6.139146304523815,0.4820797035126296,-0.741528172011141,-0.13509130947518241,0.6258714613258226,-0.5250224537847933,0.4326988590174788
46103,7.342,-0.8702752716765794,-0.26556246165857866,-0.4110725945366516,-0.05582877830472584,10.281060951790671,2.8133268078972398,4.553321344167868,0.3873781717088135,-0.6136443289074658,-0.15388214375632672,0.6236137664111251,-0.5415092513174827,0.44028371119949095
