packet_counter,timestamp_s,q_w,q_x,q_y,q_z,acc_x,acc_y,acc_z,gyr_x,gyr_y,gyr_z,mag_x,mag_y,mag_z
3675,0.000,0.9989822685277604,0.0067706054590563084,0.0020138500338581396,-0.04454806928351639,-0.017834556268550066,0.046776574414664096,9.760436719002826,0.012163585525068655,0.0019366188331462332,-0.007969553297998087,2.1627106423663403,-0.5703288964376677,-1.243269879508195
3676,0.008,0.9989817814094499,0.006771139307661859,0.0020108186439765294,-0.04455904726158169,0.020013181878468407,0.055198903888946736,9.74551567984693,0.010262432304788646,-0.00033099205162837817,-0.011254677281660935,2.1622277449289022,-0.570091720544057,-1.244008136026799
3677,0.017,0.9989819325472645,0.006752842036545379,0.0019876180465549127,-0.04455947646756883,0.01276467747851627,0.02088314279957395,9.766424376260606,0.0059656251798122575,-0.005425682134256271,-0.0086798505731307,2.158772238252178,-0.5722402110422427,-1.2388856759600873
3678,0.025,0.9989822538897711,0.006765714359301328,0.002003081735315613,-0.04454962610486467,-0.006643263098787572,0.055527216884902184,9.734031942399664,0.013047442736121767,0.004161344622705973,-0.006224431813714262,2.16051017122926,-0.5659299274329075,-1.2428394167535113
3679,0.033,0.9989819684028416,0.006760055952231738,0.001990418412820101,-0.044557453742879956,-0.017685609432093418,0.0500080894085439,9.760420966276246,0.008874256151306242,-0.002758859926896959,-0.010465436815084696,2.163884930028209,-0.5700245011748918,-1.2369160733541242
3680,0.042,0.9989822265279158,0.006762390585602775,0.0019962183869600835,-0.04455105236745875,0.04720160413008682,0.059429830893018225,9.75697177065259,0.010642563857116425,0.0016927593204146749,-0.0069742486744075564,2.1634858583042114,-0.5706286558818804,-1.2491211619628073
3681,0.050,0.9989822191200697,0.006760790385466705,0.0019926744628470435,-0.044551619990642534,0.02372989352116085,0.030581654264278137,9.740021559896803,0.009758428794204268,-0.0005338652714523289,-0.008719882646365681,2.1517029213910885,-0.5742071554695752,-1.2403836277186342
3682,0.058,0.998982242755051,0.006758982497149549,0.0019979805719814894,-0.04455112668975303,0.020167845461887816,0.05993668852612422,9.745487374086464,0.009625766935443883,0.001649837764587981,-0.008513517291471016,2.1624436133627905,-0.5659044304308105,-1.2401397851670497
3683,0.067,0.9989822251888887,0.006746629908623216,0.0020028344877198057,-0.044553174921073156,0.023557681904801706,0.03205009680747555,9.74001725541463,0.0070887586069935124,0.0013655126626081445,-0.00905624437877352,2.1526581102864575,-0.573202822072375,-1.2374562831741875
3684,0.075,0.9989818000225639,0.0067574729181391225,0.0020190680110632477,-0.044560331549555916,0.026843605193209254,0.004281390836947853,9.734551407577143,0.01253354757249872,0.0043164170702429975,-0.010300149849110641,2.159985583946629,-0.5749163652411258,-1.2378747638060543
3685,0.083,0.9989814948958793,0.006751967438654655,0.001997270821576643,-0.04456898810347596,0.015889051397372147,-0.0012423766482597535,9.760947791908492,0.00900776848263311,-0.004946568544405577,-0.010671287000607954,2.163615641982361,-0.572433346659504,-1.2334769561886416
3686,0.092,0.9989812722151944,0.006767697559114814,0.001986489811994497,-0.044572075240981314,0.023634109292313923,0.03465818989962583,9.740008143143992,0.01394858561807576,-0.002194797797769868,-0.00938012185281,2.168026117281086,-0.5724542078430378,-1.2356419396953648
3687,0.100,0.9989815029974429,0.006770456338076391,0.0019738224831475017,-0.044567046287020476,0.016377746740721767,0.0007046836375388563,9.760947038374288,0.0109079906263759,-0.002678395815614861,-0.007387303658102784,2.1546262055003833,-0.5624796620025903,-1.2394969757436591
3688,0.108,0.9989812931041656,0.006774850342755404,0.0019895512771835383,-0.044570383849350935,0.04717520132101822,0.06626343085223747,9.756927882278271,0.011012179162749377,0.004072444910206314,-0.00930523466327085,2.159510129932508,-0.5702941277984444,-1.2396312339711697
3689,0.117,0.9989815438444064,0.006777457006341434,0.001985999558599827,-0.04456452558400468,-0.010757021437271459,0.001346006275123629,9.749472815754931,0.010774932429797282,-0.0004950315796837813,-0.0071813896426523695,2.160730512391755,-0.5744443313631861,-1.2395829071272642
3690,0.125,0.9989815898532651,0.006786353200855339,0.0019924235525358193,-0.04456185356180447,-0.01434704452088524,0.03084555594753771,9.754920235679698,0.012161851505210711,0.0019299964302145044,-0.007972331108053754,2.1544100151284993,-0.5713054149234893,-1.2433212875037707
3691,0.133,0.9989815824065383,0.006784751499289561,0.00198885766544855,-0.044562423686428924,0.008992678540777036,0.06144848654480511,9.771836692579459,0.009758309675446403,-0.000539163605942268,-0.008720475882539842,2.1663046863169453,-0.5724379824780669,-1.2339455708200269
3692,0.142,0.9989813379074145,0.006778835694597572,0.0019946186334963796,-0.04456854715878957,0.02699251583287096,0.011447602003265672,9.734545203462675,0.008608225939993185,0.001601395727030833,-0.010054084711241178,2.153859370387933,-0.5700036399913577,-1.2347921376666475
3693,0.150,0.9989816379836307,0.006791889194815857,0.002000898851222918,-0.04455955134979618,-0.0036228532841164943,0.03975210832893986,9.728510005401395,0.01317821309163124,0.0019720628059537617,-0.006433709178572134,2.165541877910044,-0.573375096506102,-1.229791560818559
3694,0.158,0.9989813021019576,0.006775952705872773,0.001978946687073732,-0.04457048671055236,0.02487955684982085,0.05865311252000988,9.80969760417058,0.006472125024750068,-0.005237330716167181,-0.011212593122685995,2.156131717198321,-0.567415566345174,-1.2450547419366982
3695,0.167,0.9989815726037155,0.006778403867066721,0.0019845051178149884,-0.044563803458190374,0.04696898251354954,0.07212305234503669,9.756887321760628,0.010641114721258869,0.0016869562514530507,-0.00697658282123413,2.161673446253098,-0.5700059579006392,-1.234979150755817
3696,0.175,0.9989816290856219,0.006786988049051035,0.0019999636745452504,-0.04456053958335981,0.019797302091437388,0.07188884764501005,9.745407298008685,0.012027490632624744,0.004111720329744925,-0.007768197820001204,2.167354323849368,-0.5735095352444325,-1.2439382077202483
3697,0.183,0.9989816216495541,0.006785385891677143,0.00199638548506166,-0.0445611107326027,0.01221877755650486,0.0378240474213265,9.766374158291235,0.009758325120118844,-0.0005421560029773872,-0.008720726714891722,2.1594781594970365,-0.5680552388382778,-1.2352578788233073
3698,0.192,0.9989815883673954,0.006783929052746187,0.0019839439536988453,-0.04456263430220911,0.019774750880547434,0.07357420178971963,9.74539476410903,0.00989217694466145,-0.002726992351848955,-0.00892576279114871,2.158723901356607,-0.5743747940847393,-1.2322734916729337
3699,0.200,0.9989813424004831,0.006777962001627633,0.001989468082601021,-0.04456880953741512,0.026915256160000352,0.01718639792995433,9.734536977097024,0.00860759251586797,0.0015972376453757787,-0.010055148750335974,2.163177563058096,-0.5693245630404674,-1.240346104339335
3700,0.208,0.9989808870653966,0.0067783272154459655,0.002005191293602145,-0.0445782544080677,0.012159768501176206,0.040136402202573834,9.766365003298633,0.009993595639751919,0.0040217907781135796,-0.010847209428570892,2.1575716559149045,-0.5656742082650443,-1.241642535361601
3701,0.217,0.9989815555041661,0.006768461449501047,0.0019819675750391225,-0.04456581084885116,-0.0001924537055635855,0.017501570594095243,9.723060502287153,0.008003027272798717,-0.005349742676070374,-0.0055977585599607535,2.164629638199968,-0.5727261523758719,-1.238594084659793
3702,0.225,0.9989818685332454,0.0067812708016051024,0.0019974944501518752,-0.044556152482715175,0.026785999278495013,0.019529948007308885,9.734532917087616,0.013042996352315537,0.00415369374366063,-0.006230695862869247,2.1624985973087414,-0.5708588780476463,-1.247661244275296
3703,0.233,0.9989811261986136,0.006788400765783728,0.0019861805216669455,-0.044572213327686724,-0.014752040611451507,0.04156417796245072,9.754879849808415,0.01191610198180119,-0.002292945520348327,-0.012458202240306984,2.163891610966798,-0.5766252725913135,-1.2378299838699158
3704,0.242,0.9989816296951467,0.006784495608420556,0.0019910588974845368,-0.044561304238486706,0.026741827278555085,0.02139968395874476,9.73452910492213,0.009120313871339675,0.0014429275518964657,-0.005980994468805158,2.1651518308874604,-0.5725260630307661,-1.2432311720041178
3705,0.250,0.9989818506539297,0.006776500176187279,0.0019867588175378954,-0.044557759131412036,-0.014749841006422359,0.04312277805173472,9.75487308543084,0.00823814175508864,-0.0007865064041516257,-0.00772439644293373,2.1623917750289263,-0.567057859168922,-1.2330486260721818
3706,0.258,0.9989818527334355,0.006774721467715062,0.001992650796106474,-0.04455771988233819,0.02311369785770915,0.0514032663804257,9.739935410146245,0.009623640773066157,0.001637943012595025,-0.008517094439410143,2.162950766706702,-0.5766716307769447,-1.2427195845922072
3707,0.267,0.9989816362567275,0.006779351382271915,0.0019988782105562833,-0.044561589991454396,-0.003963043828544974,0.051057624175081875,9.728457106160585,0.011143626339497495,0.0018777770425278137,-0.00951406646091067,2.15947228040771,-0.5756163033755503,-1.23445365625981
3708,0.275,0.9989809267516052,0.006786536732036616,0.0019968942586738084,-0.04457648841047239,-0.01500947742721623,0.04562119896109707,9.75486132679858,0.011781702494772629,-0.00011204806960836116,-0.012254168028844003,2.1585409352839693,-0.5673738439781059,-1.240642679284759
3709,0.283,0.9989812263951474,0.006799582516950627,0.0020031532408773963,-0.04456750346089223,0.02281123648480746,0.054194916178199985,9.739920992303752,0.013176542529520361,0.0019668562715243042,-0.006436327611271385,2.165098546828341,-0.5687945814304884,-1.2359422467576808
3710,0.292,0.9989809191378433,0.0067830768864162215,0.0019990842921115207,-0.04457708748288353,0.026336581254697292,0.026410564440992036,9.734517903199844,0.0062051715480281626,-0.0008793975628828436,-0.010802557893570302,2.1612149572190793,-0.5781016398664538,-1.2390563238443257
3711,0.300,0.9989816953135489,0.006783178917951737,0.00201305307080604,-0.044559045429293176,0.015252236010390536,0.0207085546419178,9.760926919671117,0.010001465656992403,0.003670556332720839,-0.00423892560556105,2.1644087378820065,-0.5722680259536214,-1.2417741053235116
3712,0.308,0.9989817263081177,0.006792315417216393,0.0020103282663250636,-0.04455708174901359,0.038465006807248285,0.05139393422320971,9.777794127796696,0.012294833637843948,-0.00026411889885361007,-0.00817930869829262,2.1650930235652206,-0.5712289239171978,-1.2351866989885196
3713,0.317,0.9989817381549492,0.006790551468453731,0.002015837413106385,-0.04455683609947167,0.011476500939479311,0.05108186388611471,9.766314713846358,0.009623242414744482,0.0016342869994038715,-0.008517921847509111,2.1548413114495433,-0.5692782048548363,-1.2355243217531897
3714,0.325,0.9989814979794943,0.0067953826719628265,0.002013315570841252,-0.04456159814683337,0.014999766083938786,0.02335982604828963,9.76092132635633,0.011278296262192676,-0.0003107800867566591,-0.009718482192863694,2.1663677914504156,-0.5632421836876166,-1.2425779574687583
3715,0.333,0.9989812425552651,0.006800331115254788,0.0020012824924475533,-0.04456711105566163,0.022496708209739473,0.05921201776439576,9.7398925143024,0.011413467583981294,-0.0024959123665697397,-0.00992197275579688,2.1636814013488705,-0.5764251832462078,-1.2424724252776207
3716,0.342,0.9989809864116724,0.006794242969433561,0.002006874792764059,-0.04457352918494654,0.03849010738315599,0.054890478966488916,9.777775023209678,0.008606359295764468,0.0015868455712094091,-0.01005751969004823,2.1636351879427567,-0.5736794917688781,-1.2361507210360099
3717,0.350,0.9989807207217507,0.006788430173543112,0.002003233405371006,-0.04458053272398939,-0.0008572361167661809,0.030938043899244788,9.723026996109278,0.008741720404638482,-0.0005981825915774089,-0.010260808101359912,2.1587619203224557,-0.5666113222930794,-1.2374742478577867
3718,0.358,0.998980985585781,0.00679088978887358,0.0020090956231199556,-0.044573958638590254,0.03839713467021949,0.056392862523273024,9.777766840357137,0.0106392362178893,0.001678133567046987,-0.006979672396703863,2.165148736107689,-0.565685797811452,-1.2428078255327875
3719,0.367,0.9989812554549238,0.006793331556850308,0.002014616020141089,-0.0445672886583374,0.01851258458857268,-0.0011124999826511728,9.75553381969347,0.010639200719784792,0.001677677695992386,-0.006979757353052503,2.163871980285877,-0.5765997755892165,-1.2351446297858009
3720,0.375,0.9989810323623303,0.006797970137964714,0.0020211297898416283,-0.04457128690838283,-0.012153684512591849,0.027120057140358002,9.749433548010195,0.011142544518804996,0.001870463029280972,-0.009516033505275587,2.1648876763903155,-0.5781155473221431,-1.2404942921187614
3721,0.383,0.9989810249250117,0.006796365817726908,0.002017501920578634,-0.04457186262033148,-0.01220924848174649,0.027968177869187438,9.749431081564705,0.009758337313920739,-0.0005542041302122068,-0.008721826181384274,2.1634999657220133,-0.5730884953706868,-1.2510509682777613
3722,0.392,0.99898154423815,0.006803222868923772,0.002013760101990994,-0.04455934470354257,0.0111604017807157,0.05865227412580917,9.76627255083054,0.011791276056503718,-0.0004615774202016318,-0.005643778247940678,2.1672813074446964,-0.57121733437079,-1.2339500213056003
3723,0.400,0.9989810691130472,0.0068036369844375905,0.0020199254202747734,-0.04456965311548491,0.02566629201540239,0.03731223905608976,9.734484013863367,0.010125775030249182,0.001821979450947521,-0.011055619239251647,2.1573022153721104,-0.5702802203427549,-1.2381825575699743
3724,0.408,0.9989815621060141,0.006799739463292845,0.0020251656607441076,-0.04455895891407378,0.045095584822951215,0.004418019363492419,9.767009041868343,0.009119014770773324,0.0014362369768955434,-0.00598318267000837,2.1655957550128413,-0.5685620413554411,-1.237161610722223
3725,0.417,0.9989813552054982,0.006815124835685633,0.0020229565604795107,-0.0445613472868016,-0.012420526168013755,0.03144406533028524,9.749420226483583,0.013814470046701775,-3.086489084306169e-05,-0.009177342342177994,2.165385392897968,-0.5705591186034337,-1.2417831915037838
3726,0.425,0.9989805904562525,0.006811427744831688,0.002020287346489912,-0.044579174317076704,0.010915412852394696,0.062202098864032274,9.766250862232138,0.00924520255624929,-0.0004117994649443349,-0.01279746432625539,2.1702694698270384,-0.5761764178061892,-1.2419383103574384
3727,0.433,0.9989808118175523,0.006803432033664368,0.002015945929556859,-0.044575631178004484,0.005959676541956881,0.07433870325744721,9.701934304542908,0.008238500517777367,-0.0007965353393997462,-0.007724897638089121,2.1607396895901134,-0.5707939765877628,-1.2408382903302837
3728,0.442,0.9989810529097828,0.006795328520325412,0.0020209075967913825,-0.0445712392698295,0.041468973471905035,0.036256107399080285,9.772361859381334,0.008102210412021409,0.0013877494438857853,-0.007522789676129454,2.163646302245417,-0.5678342883096379,-1.2376710879637294
3729,0.450,0.9989808356527192,0.006799948378744932,0.002027084906634215,-0.04457512341456117,0.002056280119493238,0.01229086956603826,9.717637822624988,0.011141726907702022,0.0018655723764731012,-0.00951745944827324,2.162642132578485,-0.5802501303646395,-1.2338981700217477
3730,0.458,0.9989805845105029,0.006805096145489479,0.0020154840910260917,-0.04458049193744303,0.025392878266911348,0.04303908752693217,9.73446109618846,0.011414521386049536,-0.0025043300496691433,-0.009921567423757008,2.1583463465855184,-0.5735419859743741,-1.2474219645483837
3731,0.467,0.9989803481524631,0.006809880852885668,0.002012534991999704,-0.04458519071238235,-0.0014229801324579475,0.042700082989210957,9.722982390715368,0.011277965344246866,-0.0003202955700889979,-0.009719787605023573,2.1669335996196213,-0.5775036897404179,-1.25318136928337
3732,0.475,0.9989800778362311,0.006804168883852988,0.0019991845269193304,-0.04459271951053661,0.04521184703804009,0.011139131878742069,9.76700315164087,0.008878325476762339,-0.0027922084062929607,-0.010463393023610646,2.1597827499755984,-0.5713077328327708,-1.2435261474708734
3733,0.483,0.9989803181870498,0.0067960054894094105,0.0020039543622450617,-0.04458836564849247,0.014719560929938282,0.03914297922038466,9.76087121841636,0.008101702012979968,0.001385636042356021,-0.0075235569654492525,2.1563560850663657,-0.5693431063147198,-1.242349060385995
3734,0.492,0.9989800938349725,0.006811435899841745,0.0019924091224678294,-0.04459155489934347,0.00016695482040927825,0.06229084273425041,9.79263021232743,0.013950721769425235,-0.0022197796480223,-0.009380152040238048,2.1605400520634848,-0.5725608316699895,-1.2469269275505295
3735,0.500,0.9989798954968654,0.0068158843860592405,0.0020076940218003636,-0.04459463283651234,0.014673230198262128,0.04105696035090896,9.760863427067797,0.011004003241488862,0.004046898342280842,-0.009317295721279956,2.163444592061646,-0.5737490290473247,-1.24347619868048
3736,0.508,0.9989798748142257,0.006814402044521581,0.0019947179225583487,-0.04459590498397474,-0.023268629170626425,0.03430726961085758,9.77581002906525,0.00989506955565432,-0.002746609442166858,-0.00892420372047218,2.163890402459014,-0.5683225475525487,-1.2376646675812373
3737,0.517,0.9989801444636672,0.006816835515237066,0.0020002090540686876,-0.04458924628931406,0.014658148056250871,0.0427440757541181,9.76085620681921,0.0106374991755162,0.0016706805755894603,-0.0069825571777671624,2.161452800096712,-0.565885887156558,-1.2381939391297756
3738,0.525,0.99897990973275,0.006821319545919089,0.0020067239154500554,-0.04459352653834675,0.002176286466384784,0.020090891822585787,9.71762480060383,0.011140637703517513,0.001860432901858587,-0.009519236129109886,2.160508013851592,-0.5712984611956445,-1.24254430101327
3739,0.533,0.9989794149468395,0.006821893763460377,0.002003723205421232,-0.04460465638547752,0.018081941964346166,0.015924168298424593,9.755521693846914,0.010261299207367127,-0.0003734288024704743,-0.011259562518116717,2.163920571343024,-0.570803248224889,-1.2417915817831944
3740,0.542,0.998979176399889,0.006826616241109414,0.002000781761683546,-0.04460940822784684,0.0035140287809095282,0.03906181173535777,9.787270307813792,0.011277701556365592,-0.0003254499722672408,-0.00972060669379628,2.1587755702494205,-0.5756626615611813,-1.2393414722943084
3741,0.550,0.9989794269871863,0.006829217322755056,0.001997143920466776,-0.044603561105281374,0.014502753331531445,0.046277619521361626,9.760840325491882,0.010774513615109048,-0.0005157299406063658,-0.007184055261407104,2.1593461676089043,-0.5723514706877574,-1.250600015315184
3742,0.558,0.998979699659543,0.006820878474794237,0.0020107211835116174,-0.044598119750547165,0.025333022718117246,0.05335544172724697,9.734410171977984,0.007963626528865224,0.003566240953533077,-0.007323892002858065,2.1658700241104483,-0.571531001270692,-1.2412821045416877
3743,0.567,0.9989794250211431,0.006826000492348466,0.0019894984137754433,-0.04460443921592428,0.014418397629646001,0.0478353485279649,9.760832941831097,0.011552682385337031,-0.004696759917308299,-0.010122288926034896,2.159048122516091,-0.5776527850813294,-1.2432271144046148
3744,0.575,0.9989794745807882,0.006834910555451365,0.0019957147790271076,-0.04460168703661803,0.045098992249503894,0.021522160481209467,9.766986314565045,0.012156393285478274,0.0019061551373362926,-0.007981316781265489,2.1536359738102027,-0.579796639760952,-1.237630685643138
3745,0.583,0.9989792087636442,0.006829093779441606,0.001992000269644356,-0.04460869725783583,0.04139751712542338,0.050955538253537436,9.772296571207118,0.008741558073885877,-0.000615790683230399,-0.010262447729187501,2.17291789179505,-0.5700245011748918,-1.2368500399057714
3746,0.592,0.9989789981309213,0.0068339218823031895,0.0019985683639239912,-0.04461238089973081,-0.005208520639708519,-0.008004771062948285,9.738727824078325,0.011139760175821179,0.001855987886521308,-0.009520692409013076,2.1661567685154455,-0.5747603161723697,-1.247109142203695
3747,0.600,0.9989789904903625,0.006832313679140754,0.0019948847625240215,-0.044612963176979194,-0.00891210139970564,0.021422639224788577,9.744035488288931,0.00975801888842067,-0.00056754715117437,-0.0087234694029357,2.1634053306998027,-0.5736980350431305,-1.2381054905122502
3748,0.608,0.9989792356109931,0.006824209147556082,0.001999734009451443,-0.04460849752545274,-0.008946515550153427,0.02214709834409568,9.744033836282442,0.008100584009321406,0.0013788327219403102,-0.007525511692081185,2.16046492911346,-0.574904775694718,-1.2366505789376883
3749,0.617,0.9989790177287621,0.006828818279642365,0.0020058649025071883,-0.04461239608645808,-0.0469584784539779,0.015307130161098883,9.758989062247784,0.011139547919388522,0.0018544464426663249,-0.009521089081384028,2.1653906789436173,-0.5715425908170999,-1.2425062894100543
3750,0.625,0.9989783150403616,0.006835693357595992,0.002012902192162573,-0.04462675879118578,0.0030720511265927134,0.04744769142483661,9.787233395493821,0.011642574605091785,0.0020420105857259668,-0.012058061022054596,2.1566144282506037,-0.5703381680747939,-1.244290989097252
3751,0.633,0.9989790906101158,0.00683576860328197,0.0020268359466496127,-0.044608751691058934,-0.009472922649308643,0.02472960370657956,9.744027128059251,0.009995113641941025,0.0036621309041971507,-0.004247556911838455,2.1638687668973695,-0.57146841772009,-1.234705058383025
3752,0.642,0.9989854440385749,0.00668892976326748,0.0021105042057059363,-0.04448467814508103,-0.016825608412419625,0.08263653868030349,9.75461501811769,0.00837697052405219,-0.0029927333014936252,-0.007925593380271358,2.161465461789259,-0.5634608163069748,-1.2399259792931605
3753,0.650,0.9989854399496451,0.006687232240701071,0.0021068735703443304,-0.04448519728327763,0.040825682698672254,0.057445354545651,9.77226298265366,0.00975812437983989,-0.0005704523998791172,-0.008723632432194414,2.1563414015489917,-0.5751836739553967,-1.2403404472611639
3754,0.658,0.9989854161116548,0.006685299244389343,0.0021123883823485805,-0.044485761604801735,0.013855078003957461,0.05690755486590215,9.760785079239184,0.009619732465535645,0.0016139907771043445,-0.008523957791498414,2.169012836065195,-0.5800361335638445,-1.2370276862676974
3755,0.667,0.998985201767723,0.006689815197256294,0.0021185710895105384,-0.04448960191176798,0.028331021993418592,0.03546786488296387,9.729059442033233,0.011139135542004169,0.0018511723182418618,-0.009521901050956794,2.158269930407185,-0.5688038530676146,-1.2369687104101172
3756,0.675,0.998985479846334,0.006681953175226757,0.0021146602292025237,-0.04448472513200764,0.051539363821398905,0.06617247839642174,9.745816003044789,0.008238753503817193,-0.0008095348731213843,-0.007725848060138925,2.1629082919563523,-0.571489278903624,-1.2369093050212017
3757,0.683,0.9989857337187394,0.006684464768567271,0.002111063378268394,-0.04447881707738393,0.024665769290430975,0.0656095480402553,9.734337007237103,0.010774518333163821,-0.0005218619334879928,-0.007184704322056307,2.162170451108338,-0.5727029732830564,-1.2361707005521672
3758,0.692,0.998986031512364,0.006676162152280512,0.002125384310278777,-0.04447269323561188,0.020934514680677505,0.0029152817458014397,9.750204210822488,0.00796139033408588,0.0035595025542356578,-0.007327165303171005,2.163957573662569,-0.5776875537205527,-1.2468532671270869
3759,0.700,0.998985847195349,0.006691274260390304,0.002132294503241711,-0.0444742315539576,0.027978987334223646,0.03866815410599045,9.729048269390935,0.013674659242782227,0.002137192185388562,-0.00898119040196743,2.1582037643821526,-0.5706711273958401,-1.2279176129847542
3760,0.708,0.998985544089797,0.006675316579450413,0.0021098949087738606,-0.044484505073689416,0.028103211057398717,0.039487682538977616,9.729044616165995,0.006483824481845727,-0.00528289575944038,-0.011202507812394872,2.163633691385187,-0.5695269702948547,-1.2359460013423926
3761,0.717,0.9989855399398774,0.006673618302872161,0.002106248759067198,-0.04448502586202152,0.01738724892584993,0.03386016036673403,9.755477190915371,0.009758082782436329,-0.0005742273883000403,-0.008724070272883617,2.156076055488168,-0.5722263035865535,-1.2374405689344785
3762,0.725,0.9989855442860799,0.0066719932639844725,0.0021028852214533176,-0.04448533114494257,0.01743145987460102,0.03465471413047219,9.75547432185388,0.009758047850723827,-0.0005747026613210156,-0.00872415906891839,2.160222867668796,-0.5707568900392578,-1.236935890128976
3763,0.733,0.9989857980926771,0.006674503944848764,0.0020992795261478023,-0.044479424813037426,-0.005764752258116686,0.005552397904471239,9.73872921735296,0.010774389456741078,-0.0005240510866528607,-0.007185153120107871,2.162174664199044,-0.5634306834863145,-1.2367470249485537
3764,0.742,0.9989860729566814,0.006676752851744292,0.002105139672897657,-0.044472636495970955,0.017425482662202594,0.03636175530274796,9.755468119772365,0.010635229039633275,0.0016605131601030642,-0.006986356302075198,2.1624133089259403,-0.5653767667301131,-1.235994328186298
3765,0.750,0.9989867820489993,0.006666487729559207,0.0021001458404457827,-0.044458481982476615,0.006448256386798537,0.03082716721828717,9.781903422840479,0.00773576314838598,-0.000999230954230891,-0.005189092309965914,2.1621758218745124,-0.5724657973894456,-1.236905387695184
3766,0.758,0.9989861037148982,0.006673178324760665,0.0021073607679380083,-0.044472376889110966,-0.009570578312499967,0.036535030020662655,9.743989920558523,0.01164095932388625,0.002031065494547927,-0.01206096656715692,2.1602620273660094,-0.5722726617721846,-1.24229269121311
3767,0.767,0.9989868778313413,0.006673153143770809,0.002121350126537375,-0.04445432286684824,0.020810046833528717,0.010195362111129001,9.750199583725765,0.009992757505689464,0.003658891760677947,-0.004250889689516366,2.161208428777435,-0.5693037018569334,-1.2381632739546784
3768,0.775,0.9989860951076243,0.006669593811165003,0.0021092247582288615,-0.04447301958418082,-0.0061547203583132495,0.009615109452913873,9.738725814381237,0.009384167578510714,-0.0026291616091465016,-0.012999151494418855,2.1641109977830846,-0.5731750071609961,-1.2344429256652307
3769,0.783,0.9989863662574398,0.006671924788019511,0.002114733185319321,-0.04446631708310201,0.00616228615632627,0.03410621113927673,9.781892725396558,0.010634884480540029,0.0016586398247435139,-0.006986957830688133,2.168471537964038,-0.572642707641736,-1.2297770981070872
3770,0.792,0.9989869483444914,0.006668321508533709,0.0021112959482410855,-0.044453941951625664,0.03171603528272084,0.01888325965217929,9.723756506749098,0.009255159694729512,-0.0007637400891794951,-0.006187226224441114,2.166824857179609,-0.5756533899240551,-1.238306085202905
3771,0.800,0.998987477072259,0.006674861245168496,0.0021168490402171053,-0.04444081266473396,0.03892444114181478,0.05458927047649672,9.70256429701535,0.011651097080817746,0.0017097295189208957,-0.005448113440195102,2.1643697645699493,-0.5680668283846855,-1.2364428005602204
3772,0.808,0.9989872772298308,0.006668874996932793,0.002122711601422628,-0.04444592371255227,0.02414090253661116,0.07772329608891573,9.734249137338777,0.008602082873320647,0.0015531822339062507,-0.010065514604128408,2.170274925313738,-0.5747185938053017,-1.2426845867372023
3773,0.817,0.9989875308554516,0.0066713854773685416,0.002119089630689841,-0.04444001879250906,0.04006864357688167,0.07362302648213631,9.772157626261919,0.010774449772515455,-0.0005281019579977929,-0.007185447894644667,2.1660304341634435,-0.5692248929413605,-1.2298273948479113
3774,0.825,0.998987335656352,0.006676572413744054,0.002098496337176414,-0.044444604758620034,0.04989689504678336,0.06337096275843028,9.676107216832879,0.011556986689686414,-0.004714449191646637,-0.010118827186036728,2.1656026562247965,-0.5719891276929427,-1.238105653253556
3775,0.833,0.9989881091112174,0.006676541569741094,0.0021124787152802353,-0.044426558281495186,0.0171006307045967,0.04544186263571679,9.755430624254469,0.009991574211753887,0.0036570662159873344,-0.004252701824284033,2.153887534391221,-0.5756557078333367,-1.2386447967545071
3776,0.842,0.9989873595599773,0.006672959904856142,0.0021095023478355313,-0.04444408898085024,0.03162095343471611,0.023905376871470634,9.723745766683342,0.009244577542607872,-0.0004503740850429253,-0.012801294494977283,2.1650737317664,-0.5663208344859929,-1.2325477018513913
3777,0.850,0.9989870975622526,0.006667050567886966,0.002105772521694544,-0.044451041190940156,-0.0024911602555114966,-0.011607166766088344,9.733479920214357,0.008741677260326462,-0.000634911991589823,-0.010264011330912318,2.1614164640735893,-0.5751164545862316,-1.2332233989593828
3778,0.858,0.9989873872313255,0.00666989076671786,0.002093689019704104,-0.044444675453639344,0.024566852101196038,-0.009412874045724403,9.744952451478726,0.010914464206408622,-0.0027151748166675876,-0.007383530191855745,2.16364421264417,-0.5722263035865535,-1.2373852436128854
3779,0.867,0.9989874003080038,0.006668007640687354,0.0020991305072495525,-0.04444440742178797,-0.020682711189820874,0.04093180231392166,9.770389204264577,0.009617620736201092,0.0016019171448954169,-0.008527646743641051,2.158807998175729,-0.5713100507420522,-1.2437774093206027
3780,0.875,0.9989878649324707,0.006664141987547479,0.0020948249041156464,-0.04443474583987893,0.00860065728828413,-0.002951977601734052,9.707036817945433,0.009255101294448481,-0.0007671394074625998,-0.006187700346176668,2.168304158922666,-0.5724982481193875,-1.2402784938801337
3781,0.883,0.9989876503767157,0.0066686449559386326,0.0021009512050021374,-0.04443860453811825,0.03307647055620682,0.04533833108132785,9.793324849051565,0.011136606283607412,0.0018372282922868223,-0.009526307507835799,2.157296895438251,-0.5697850073719994,-1.237454823969005
3782,0.892,0.9989878790352497,0.006660583736241786,0.002096788074656244,-0.044434869693932635,0.01333141283876798,0.0795667570514965,9.760627397142592,0.00823880092201241,-0.0008209694770494148,-0.007726835848772624,2.1564130230607232,-0.5718585756262836,-1.2501378210662908
3783,0.900,0.9989876945258594,0.006675682097482105,0.002103651742557991,-0.04443642766681294,0.03166118159463704,0.029541904523526494,9.72373014795555,0.01367185739454166,0.0021255524126554725,-0.008985963055216912,2.1651092205842697,-0.5692967481290887,-1.2374023496543174
3784,0.908,0.9989873388034525,0.006659245004293006,0.0020898026231759605,-0.044447543142058725,0.006090980160546433,0.04643298443050983,9.781842021817187,0.006346823074815383,-0.0031139129691399488,-0.011002136393837065,2.1553872801322433,-0.5608078412009073,-1.243413816188619
3785,0.917,0.9989875922192795,0.006661753213363852,0.0020861620268825395,-0.0444416422294362,0.020904019064882328,0.024798184592896965,9.750173177936096,0.010774139093698018,-0.0005326530568010808,-0.007186441507889589,2.1567260269730864,-0.5770022721887095,-1.22615919539054
3786,0.925,0.9989875699436196,0.00666006899977408,0.00208270051628843,-0.044442557730403905,0.028157707485828395,0.06047242698248122,9.728936655887592,0.00975777426216451,-0.0005866763306335839,-0.00872561159595029,2.164130425134745,-0.5761300596205581,-1.2371004655811535
3787,0.933,0.9989878406434406,0.006662391668748954,0.002088181490492211,-0.04443586706559279,0.017171250063316518,0.05505043921528051,9.75538101039043,0.010633229078857947,0.0016518028277734478,-0.00698979430882732,2.1612101456083717,-0.5702825382520365,-1.2383981256638368
3788,0.942,0.9989878401099952,0.006661024684924459,0.0020756498362101707,-0.0444366711205011,0.03909065911330173,0.06838392326127082,9.702476208658537,0.009898695219014462,-0.0027730119325352198,-0.008922422662030298,2.1614718716221666,-0.573967661666683,-1.2408028042513626
3789,0.950,0.9989880933613651,0.006663532044108592,0.002072002448358298,-0.044430771642816405,0.02107911313910522,0.02814022923038516,9.750163728174229,0.010774010505849384,-0.0005343160571444145,-0.007186799114350127,2.171750759506713,-0.5700940384533386,-1.2441826563014151
3790,0.958,0.9989883730993422,0.006665847549258161,0.002077602777525024,-0.04442387258534564,-0.005888317530053737,0.027580275918148937,9.738691672202897,0.010632925443350974,0.0016505528803876753,-0.006990337731430269,2.1665629956129737,-0.5739213034810517,-1.2358828638365846
3791,0.967,0.9989881283258315,0.0066597492253876005,0.002082962889894627,-0.04443004017448845,0.009962651314860597,0.02354970633107773,9.776610736883566,0.008600236190136534,0.0015419411904516787,-0.01006856992823105,2.161188526990833,-0.5731842787981225,-1.235440834312974
3792,0.975,0.9989884403713138,0.006662281508702486,0.002088935266820015,-0.044422363276171814,0.027964792846786313,0.06540769533784097,9.728905284773832,0.010632836777174803,0.0016498371825595481,-0.006990499009629435,2.161466839738093,-0.5693222451311859,-1.240114474055332
3793,0.983,0.9989884186775744,0.006660766457769071,0.002076098012093825,-0.044423680119042276,-0.0010618559501339197,0.018929510280933818,9.80305926522954,0.009899049256919151,-0.0027756006337726893,-0.008922217792311952,2.1645939291087326,-0.5729239238116961,-1.2337093048413255
3794,0.992,0.9989884316684376,0.006659134717116706,0.0020727524147357975,-0.04442378883979156,0.020946574589876026,0.03221243312870826,9.750151409924191,0.009757661557672373,-0.0005907313134417082,-0.00872612210909759,2.160976498877338,-0.5734701307866459,-1.2398345169274245
3795,1.000,0.9989881996373703,0.006663817903637251,0.0020697222512367683,-0.044428445460493134,-0.016872908547375432,0.025384708792339287,9.765133086440066,0.011276557211908244,-0.00035571733088264395,-0.00972493768774976,2.157279049364686,-0.5697618282791839,-1.2350135929834463
3796,1.008,0.9989879607044969,0.006668574269395991,0.002066847038697314,-0.04443323787440156,0.028194127767657742,0.0688120898305162,9.72888113968452,0.011276514097341357,-0.0003563318583249246,-0.009725052665608781,2.157531987894539,-0.5714823251757795,-1.2362161988569869
3797,1.017,0.998988213823705,0.006671080605018776,0.0020631863325955885,-0.04442734053533463,0.02104261604541595,0.03488379994867353,9.75014201212089,0.0107739001345475,-0.0005375616990566848,-0.007187320793945081,2.162644696614675,-0.5690224856869732,-1.2342489140983732
3798,1.025,0.9989879884127528,0.006675829845526191,0.0020605144553320753,-0.04443181948891028,0.0173228939172042,0.06437012884716012,9.755323698921291,0.011276422841393604,-0.00035757595182279653,-0.009725276180103428,2.1646101091836765,-0.5712358776450424,-1.2359226376597738
3799,1.033,0.9989882114533611,0.006667740310653973,0.0020561047532456317,-0.04442822357025175,-0.005797531331423923,0.03511809002183934,9.738667460825921,0.008238646023005967,-0.0008286935914257993,-0.007727724384320292,2.160204547160289,-0.5775693403471933,-1.2344297594176354
3800,1.042,0.9989880446154511,0.0066832715547690364,0.0020542658417120933,-0.044429726406705616,0.017398243717927076,0.06606212358857351,9.755312255321952,0.013811508964750842,-6.83571486063757e-05,-0.009185309421922087,2.1673117474343884,-0.5697919610998441,-1.2381140210651467
3801,1.050,0.9989880574341505,0.006681377846301301,0.002059662240870989,-0.04442947316220937,0.021091229083080427,0.03842602417509046,9.750128589755159,0.009615543576583714,0.0015909194478748805,-0.008531216502465144,2.1604523351973337,-0.5763533280584795,-1.2349278101637007
3802,1.058,0.9989883395628095,0.006684045816209409,0.002056412731900881,-0.04442287829198248,0.03197820646991193,0.04548305693156668,9.723667609977548,0.010773818501828715,-0.0005397156501946641,-0.007187667165334438,2.16118512721717,-0.5707383467650053,-1.2349757665893555
3803,1.067,0.9989883349742373,0.006682341629429725,0.002052678992191699,-0.04442341054786504,0.01732591584423963,0.06868123350742598,9.755294293364317,0.009757465000776908,-0.0005955895519453968,-0.008726807794488412,2.1572681214471814,-0.5729216059024147,-1.2335187223765691
3804,1.075,0.9989885686766743,0.006674400682111908,0.002048641094105451,-0.044419535100357066,0.024910138216699573,0.012233628441149528,9.744948445499277,0.008238630303693612,-0.0008310321663099168,-0.007727947893926359,2.16610057606171,-0.5615031435167686,-1.2394223668067703
3805,1.083,0.9989883189246376,0.00667927240500614,0.0020364609731750327,-0.04442497944818414,0.02504637590607308,0.013033615918781744,9.744947061100358,0.011418376918370334,-0.002547082243053943,-0.00992113172315793,2.166078330512283,-0.5734376800567041,-1.236379315103982
3806,1.092,0.998988131667102,0.006683454724960262,0.002052084972499294,-0.04442784226674296,-0.0057028872937529,0.041058264712437176,9.738644286440234,0.01099147496921208,0.004008924053272816,-0.009336043613535345,2.163861475970998,-0.5736563126760624,-1.2337077053626575
3807,1.100,0.9989878993065376,0.00668813527365761,0.0020490260988523454,-0.04443250361750396,0.013906902179706443,0.008631677978869488,9.771405474377229,0.011276182914643771,-0.0003627656605653077,-0.00972608685001804,2.1587307347921416,-0.5787783989080625,-1.2332082628148693
3808,1.108,0.9989884807796429,0.006705811434568359,0.0020466681817012727,-0.04441687192880335,0.021084522637204457,0.04448370011464029,9.750102851762183,0.014325086824893253,-0.00019546717190251913,-0.005109059713683831,2.157749030948002,-0.5760860193442086,-1.2325085285912176
3809,1.117,0.9989886864618213,0.006697913315568519,0.0020331119243148996,-0.0444140600981926,0.021212672127734044,0.045407296398471374,9.750098312693947,0.008381134322291279,-0.003019175487655846,-0.0079228968537591,2.163875956159111,-0.57074530049285,-1.2356885043192967
3810,1.125,0.9989887520112966,0.006706826902832906,0.0020396821907100976,-0.044410939242142795,-0.005662619537747517,0.04475361948035324,9.738628029545708,0.012149713926558364,0.0018770233207946443,-0.007992822692764998,2.161436281139667,-0.5724565257523194,-1.2359342493643404
3811,1.133,0.9989885073365966,0.006700718886018424,0.0020449912046858255,-0.044417120424250923,-0.0020247217108076768,0.017003493802249393,9.733472097398819,0.008598327288055692,0.0015293292200157106,-0.010071880424071736,2.1565356174771315,-0.574386383631147,-1.2335101693558534
3812,1.142,0.9989887698857759,0.0067034176041137076,0.0020416152275100894,-0.04441096308111965,0.013924558669053162,0.013072441823488488,9.771400517035831,0.010773654124497234,-0.0005439586188079179,-0.0071883624003270825,2.1716809734346523,-0.5726890658273671,-1.234636359136892
3813,1.150,0.9989885199992163,0.006708290475854743,0.002029414564683297,-0.044416407162126886,-0.016652193600067443,0.041070912864048355,9.765080090000763,0.011418804252929472,-0.002552140687438715,-0.009921028052986372,2.1765656603515056,-0.5695176986577285,-1.2348749204951228
3814,1.158,0.9989884089759623,0.0067234879271038505,0.0020372050071354353,-0.04441624970130891,0.021207128142763387,0.04979969785074282,9.750076882617952,0.013667956135562313,0.002109499493366968,-0.00899276216222248,2.1612192719744145,-0.5673645723409796,-1.2396465553248084
3815,1.167,0.9989881642982352,0.006717378103106826,0.0020425035616413105,-0.04442243355179508,0.013917253510584695,0.015907133333910032,9.771396322811064,0.008597978172898705,0.001526688532345482,-0.010072531758624171,2.1619243799022296,-0.5748978219668733,-1.2359075015152605
3816,1.175,0.99898843071513,0.006719706843338866,0.002048117340625809,-0.044415831103576095,0.020923133428504527,0.05148859352463439,9.750068721534436,0.010630541660562851,0.0016399407711575804,-0.006994544557636621,2.151653121826157,-0.5717009577951377,-1.2335713594325624
3817,1.183,0.9989879407757005,0.006720176042882423,0.0020449648214704384,-0.044426923566206845,0.03179575318106053,0.05854247531111804,9.723598351757238,0.010259716043956904,-0.0004259373803416189,-0.011265935824783411,2.1543531449105613,-0.5678134271261038,-1.2355417982128725
3818,1.192,0.9989876724368836,0.006724873045618607,0.002041917972087373,-0.044432386528899,0.02089756087891575,0.05321557283446025,9.750059503846481,0.011275960380040138,-0.0003694733072191026,-0.00972701195969384,2.1699984480061487,-0.5778505565171537,-1.238262023635448
3819,1.200,0.998987685020416,0.006722971441729462,0.0020472763745818484,-0.044432144805204674,-0.0060729410355533945,0.05254897004133366,9.73858883739654,0.009613985651845089,0.001581528322219145,-0.008534046695476184,2.165545260739602,-0.5760651581606745,-1.230254310694828
3820,1.208,0.9989879547129018,0.006715454168600724,0.0020344013690515765,-0.04442780913924471,0.024698205089936243,0.026205268273556525,9.744921429676708,0.00838215898895081,-0.0030243546394299104,-0.007922229155033388,2.1644104716570483,-0.5730027327272692,-1.2420112748800196
3821,1.217,0.9989877393149336,0.006719936060749488,0.0020404361193301357,-0.04443169789937787,0.04073872684527347,0.02232374539732238,9.782852833923144,0.011132345440435277,0.0018146641357232038,-0.009533727390576053,2.1653214859152348,-0.5655930814401898,-1.2330411169027582
3822,1.225,0.9989880142020551,0.006722189212467339,0.0020461979938305066,-0.044424911103982716,0.055323325553350525,0.0008166889230729825,9.751258476535444,0.010630015005266374,0.0016376881290046557,-0.006995444332733856,2.1602617562603275,-0.5761787357154708,-1.2422556056555205
3823,1.233,0.9989877348494907,0.006716469769064588,0.0020332226845189687,-0.04443265307902148,-0.0022663015385399566,0.027150697142105065,9.733449028913281,0.00888469548103301,-0.002849521001861636,-0.010460478265773605,2.160914240949121,-0.5704594485043267,-1.2313180226461597
3824,1.242,0.9989877682887226,0.006714502933662809,0.002047883612245566,-0.044431525211075344,0.024611022557378598,0.029426126872706074,9.744912457393394,0.009469795465486456,0.0037649536581849568,-0.008341484374918183,2.1606429310784447,-0.5762837907800329,-1.2276023325192302
3825,1.250,0.9989879915127324,0.006706412281247716,0.002043424732295682,-0.0444279333644368,-0.017158188360659014,0.05101397491800382,9.765032330359642,0.008238813579678803,-0.0008407601516130393,-0.007728693016716626,2.1641628530610535,-0.5717774488014291,-1.2415364026074478
3826,1.258,0.9989880393359636,0.006715518644862904,0.0020408190673912446,-0.044425602196840226,0.03164599251576444,0.06576722648372696,9.72355265968674,0.01229211271973382,-0.0003156903335192512,-0.00818856923958582,2.1662835251902433,-0.5687482232448573,-1.231050861347596
3827,1.267,0.9989875663468468,0.006715788153143031,0.002046767154977444,-0.044435922608852374,0.05139045042802339,0.033433731233879244,9.75637055061655,0.010115602352434173,0.0017533028733538831,-0.011073686782472628,2.159536966819276,-0.5693523779518462,-1.2433023518389057
3828,1.275,0.9989876030394941,0.0067244121234562885,0.0020531187097208485,-0.04443350040863524,-0.017328848360133025,0.05366302030729512,9.76501783300368,0.012148065280408571,0.0018690988144668109,-0.007995704062066898,2.1556006014740468,-0.5676040661438719,-1.2391970390995939
3829,1.283,0.998987843396398,0.006716122881283216,0.002057779526951878,-0.04442913439485762,0.02801003413680061,0.005028814120775063,9.739792535002886,0.008094784534886155,0.0013431125242593304,-0.007535905888543536,2.1621601501227206,-0.5668299549124377,-1.234761590297216
3830,1.292,0.9989875361780681,0.0067102587544856235,0.002044879966628514,-0.04443752304352307,0.0062289292462000745,-0.006650866686434584,9.792736437932632,0.008885399235252393,-0.002853713606796214,-0.010460126164442862,2.1616967986456785,-0.567838924128201,-1.2381736116631878
3831,1.300,0.9989877593536803,0.00670216776173133,0.00204041043763546,-0.04443393223712459,0.020576236471526278,0.0636063664198363,9.74999793589756,0.00823886334181011,-0.0008433633480038879,-0.0077289184522421495,2.161222349810081,-0.5744489671817491,-1.2400675839487896
3832,1.308,0.998987809067405,0.0067106443222358,0.00205567099859155,-0.044430831685141586,0.013345667140872116,0.029652363426978266,9.771365078709877,0.012003306351232508,0.004053356630036394,-0.007803743908491978,2.161730723129557,-0.5676388347830952,-1.2428142683830994
3833,1.317,0.9989878043600965,0.006708937432403242,0.002051874587470863,-0.04443137077560994,-0.006617694243914146,0.06375840082441772,9.738521545461046,0.0097574284642394,-0.0006109228361975955,-0.008728438364782511,2.1614668736263036,-0.568833985888275,-1.240119109750031
3834,1.325,0.9989875314358749,0.006702628648851302,0.0020570148503950567,-0.04443822110254837,0.009335821732780908,0.05988265439288544,9.776456323932054,0.008596672662286654,0.001515560274560641,-0.010075133278911257,2.166135353227167,-0.574732501260991,-1.2441796650210242
3835,1.333,0.9989880121262166,0.00669874779199001,0.0020526152776718025,-0.04442820249180374,-0.0028631099893643348,0.03663133526887461,9.733417808892042,0.009255223308114267,-0.0007860688711193243,-0.006189878090489219,2.16320205618204,-0.5764367727926155,-1.2436966101459868
3836,1.342,0.9989880272508335,0.006696924661882162,0.0020577694056775186,-0.04442789883209332,0.024017305209175596,0.038961646441701324,9.744880479298878,0.00961275963361395,0.0015735712958297593,-0.008536324602709058,2.1695300646450324,-0.5742141091974199,-1.2409857148053893
3837,1.350,0.998988279981857,0.006699427394065984,0.0020540431804695293,-0.04442201073899843,0.0008928163090209796,0.009627388801395976,9.728322410457166,0.010773660668746578,-0.0005535694632652938,-0.007189549832327629,2.1587651675991726,-0.5712544209192948,-1.237918454955261
3838,1.358,0.9989885552839574,0.006701789457924601,0.0020595938430390207,-0.04441520576261946,-0.02098844587339414,-0.0018533035551722182,9.78127332944461,0.010628839173138688,0.001631814208713255,-0.006997529786642443,2.165157574423947,-0.5669180354651369,-1.2440168517888204
3839,1.367,0.9989883561885173,0.006706061946199819,0.0020747166060327846,-0.04441833499742452,0.01661512997440414,0.0067721845985250625,9.766262797358525,0.010986156427145153,0.003990855858977776,-0.009344339017532396,2.1621674410490925,-0.5646420599564654,-1.2357589433175835
3840,1.375,0.9989883114921119,0.006704300445814695,0.0020618906038278825,-0.04442020334048026,-0.010347645213617,0.006046919012194351,9.754796215131659,0.009902549715823819,-0.002800239869664446,-0.008920501973150499,2.161732253575338,-0.5713030970142076,-1.2430236237714152
3841,1.383,0.9989885513938338,0.00669600718250195,0.0020665303829527394,-0.044415843164775884,0.03461870754602317,0.04929278832627352,9.718386508235438,0.008094094307463922,0.0013380852630529422,-0.00753725153284408,2.1595014271690918,-0.5671088531731164,-1.2384407504939314
3842,1.392,0.9989887819453366,0.006698384505519002,0.0020627087955394354,-0.04441047652091075,0.03074031421950054,0.07865536009236383,9.723459850838958,0.010773710270892497,-0.0005555791746663295,-0.007189701930256237,2.1612614247867685,-0.5771853870219525,-1.2454127957961767
3843,1.400,0.9989887939223451,0.006696473779149538,0.0020680198504531284,-0.04441024825872938,0.05053586546034633,0.04630438162696957,9.756322418732964,0.009612347385271511,0.0015700621073214411,-0.00853720732002363,2.1587599493299434,-0.5692944302198072,-1.237204628438388
3844,1.408,0.9989885346138222,0.006701392210812753,0.0020555860700977174,-0.04441591627416918,0.030728374755183956,0.08033781991735413,9.723446133772745,0.01142113949918157,-0.002569444420038393,-0.009920172523014185,2.1602443846217043,-0.5693199272219043,-1.239879274395743
3845,1.417,0.99898784997458,0.006707832911721342,0.0020712882710447653,-0.0444296111359723,0.04665353279801903,0.07669605505434159,9.761383345648303,0.011487276860440815,0.004160308355103746,-0.011884763465587258,2.158748885859598,-0.574407244814681,-1.2356912150527164
3846,1.425,0.9989885700338123,0.006697428474649061,0.0020754111001568373,-0.044414795534727596,0.043220205667300934,0.014118768709155082,9.777723574236528,0.00759165131564213,0.0011633858806392255,-0.004998928982331372,2.163243457977446,-0.5713633626555281,-1.2493601162071086
3847,1.433,0.9989888061172444,0.006700135360511329,0.002062539770225336,-0.04440967651638912,0.02343298153904591,0.04803714534683915,9.74484139132323,0.010919248302206051,-0.0027434732398371737,-0.007381143750329047,2.1582984332925736,-0.5695733284804858,-1.2408677264449637
3848,1.442,0.9989885161997157,0.006694049481261102,0.0020582347838955487,-0.04441731500448521,0.020365258783517304,-0.0145171805289439,9.761192557009933,0.008741356114812927,-0.0006786885127226191,-0.010268185218614076,2.162903005910703,-0.5705058066899579,-1.2361862071149312
3849,1.450,0.9989887392271525,0.006685958308194497,0.002053731786890194,-0.044413725858046704,-0.010342312292355627,0.013170417862144687,9.754789202945789,0.008239199431278765,-0.0008512342050204312,-0.007729343972969033,2.1597543487548405,-0.5690734796911673,-1.239641038520123
3850,1.458,0.9989887442063116,0.006684021972753721,0.002059209153878621,-0.04441365169658661,0.016540326649980057,0.015499920993937814,9.766252971279938,0.00961174107500412,0.0015668258800074673,-0.008538259156183886,2.163202632281612,-0.5681363656631322,-1.2437754169558641
3851,1.467,0.9989894688479287,0.006673552279951927,0.0020632426854809744,-0.0443987371500771,0.01256668189887922,0.04479856770045301,9.771308406835438,0.007591334473879181,0.0011621942057087782,-0.0049994745595248954,2.1602496198350387,-0.5710357882999367,-1.2405954187599653
3852,1.475,0.9989899307700466,0.006669540987635237,0.0020587013182564104,-0.044389156242872894,-0.010499795181898787,0.015278143201100325,9.754785961753512,0.009255412986897488,-0.0007916394505476286,-0.00619030999275864,2.1633838645792096,-0.5744026089961181,-1.2351690597875313
3853,1.483,0.9989897016349666,0.0066632098136084955,0.0020730366433404372,-0.044394596307835266,-0.0144836930074944,0.044595023283094976,9.759836896101683,0.00844956938208609,0.003690652355481604,-0.009886845537301832,2.166835734264799,-0.5732260011651905,-1.239794002267734
3854,1.492,0.9989889984838997,0.006681237290511617,0.0020533308920649713,-0.04440862313392812,-0.021508620919504194,0.010781134833514661,9.78126643667509,0.014604326738123695,-0.004296097044848912,-0.012110544835344223,2.159077116780527,-0.5713425014719942,-1.2471933480125923
3855,1.500,0.9989892544636385,0.0066727318542666725,0.0020670749668136768,-0.04440350568217619,-0.014435296635880054,0.046447107089480535,9.759828329186536,0.007947067007172827,0.003518235257317553,-0.007348378024301681,2.159673753374011,-0.5731193773382389,-1.2286160956801686
3856,1.508,0.9989885213087648,0.006668860891311215,0.0020729518205618775,-0.04442030457448385,-0.010777913703415356,0.01854072974588897,9.75478000287451,0.009097386796682221,0.0016738157443119898,-0.01261709973208721,2.1636404739884063,-0.5746629639825442,-1.23687381894228
3857,1.517,0.9989887904333923,0.006671154893373622,0.002078323223666245,-0.044413656158829744,0.026910047682333602,0.027114384600672715,9.739759194246844,0.010627472935051504,0.0016249688228440735,-0.006999955385388438,2.1570546306643266,-0.568566677174004,-1.237712320992101
3858,1.525,0.9989890588560032,0.006673520235137901,0.002083869898178066,-0.04440700282518661,-0.004010935142982785,0.05494982844192628,9.733331225201129,0.010627443761469579,0.001624512671939814,-0.007000041009691109,2.161468505736715,-0.5710334703906551,-1.2403423722224427
3859,1.533,0.9989893115453311,0.00667602212153491,0.0020801086532302505,-0.04440111817071368,0.03376563754633206,0.06359212673072755,9.718306462922792,0.010773816593342317,-0.0005619454917858804,-0.007190365572633007,2.1579721564200525,-0.5701990935179004,-1.2296328950571374
3860,1.542,0.998989049239328,0.0066701810753094955,0.002076490841206257,-0.04440806649824881,0.0459303490644662,0.08847327388470792,9.761287133358087,0.008741607663343982,-0.0006856150151117026,-0.01026863852697835,2.1583247279679796,-0.5764437265204602,-1.2444646731975209
3861,1.550,0.9989888330399047,0.006674645843338832,0.002082437719795881,-0.04441198056357241,0.04587795632056728,0.08928525437209309,9.761279987865237,0.011129279403816061,0.001793507584600055,-0.009539650737853256,2.160951683815397,-0.5709963838421502,-1.236439972021135
3862,1.558,0.9989885985429797,0.006679408147117837,0.0020791487817645917,-0.04441669312635869,0.0766091837113111,0.0632401946952051,9.767707415835009,0.011275887775956273,-0.00039313055135265683,-0.009729728184871481,2.1671121437959684,-0.5710705569391602,-1.2442072939800908
3863,1.567,0.9989887754259428,0.006660934882991743,0.0020647313202452216,-0.04441616151848013,0.038935809530554935,0.056161653702484333,9.782724435924862,0.005852058620057641,-0.003337058533314884,-0.008458460901941871,2.160737701653496,-0.573721214135946,-1.2405663530635358
3864,1.575,0.998989041701648,0.0066632194071119715,0.0020700419965543446,-0.04440958222375655,0.023001058305362716,0.061329530185520474,9.744767829356613,0.010626871840272074,0.0016223943403017738,-0.007001016873974181,2.1639079265945833,-0.5729841894530167,-1.2400618594671589
3865,1.583,0.9989890531673824,0.006661300170618782,0.002075310239099685,-0.0444093663452414,0.030649553189134458,0.004953638923276029,9.734716188241102,0.00961075521727463,0.0015597879143180017,-0.008540188632818089,2.1680599231562296,-0.5739630258481199,-1.2402663714838311
3866,1.592,0.9989888145032249,0.006666283927645699,0.002063199238593372,-0.044414551274776656,0.05760061691287109,0.007459514521012833,9.746179993122642,0.01142273977284749,-0.002581231081209435,-0.009919716118645441,2.157562410940126,-0.5703010815262889,-1.2403778807691839
3867,1.600,0.9989888096247316,0.0066645744863203515,0.0020593339519862875,-0.04441509692832648,-0.03270876099053281,0.015215731563495856,9.807738076014243,0.009757574213428658,-0.0006273218380865071,-0.00873008581264694,2.1624178324868613,-0.577346071909272,-1.236613122961848
3868,1.608,0.9989895219425334,0.006654455647013449,0.002054292185751276,-0.044400823783870884,0.034783786115798826,-0.021217920092403853,9.729697548774725,0.007737491408272233,-0.001028349378811154,-0.0051906179045926246,2.1626746282812137,-0.574921001059689,-1.2383433784374396
3869,1.617,0.9989893191707303,0.006669719409631635,0.0020518539703415165,-0.04440320845482429,-0.021689879700487188,0.02293809357374699,9.78124508073063,0.013809716941824002,-0.00010272417379656475,-0.009191722381562495,2.1584688732255053,-0.5770463124650591,-1.2307850414485488
3870,1.625,0.9989896100652202,0.006672343488791624,0.0020576053674683566,-0.04439600290857981,-0.010846661111699138,0.030061290813021727,9.754751227573793,0.010626333945446303,0.0016199160052863437,-0.007002017879843574,2.1599880971505034,-0.5644211094278254,-1.2382185543406319
3871,1.633,0.9989898328170378,0.00666425203085365,0.0020530624251067745,-0.04439241610607474,-0.04169130325976501,0.05776395118265846,9.748294127717054,0.008239489052508295,-0.0008608097275896167,-0.007730025924044772,2.156808491681798,-0.5717380443436426,-1.237439850565797
3872,1.642,0.9989894155718819,0.006685353933870157,0.002069613770799115,-0.04439786387844564,-0.00012325091707394365,0.037898105842866646,9.728253399003531,0.015032902401032475,0.004499119739136506,-0.009814186883734014,2.1675771951598417,-0.5712845537399551,-1.2410278064759281
3873,1.650,0.9989894563954751,0.006694023125653685,0.0020756266348634597,-0.044395358306241965,-0.0112899942270967,0.03287630343498568,9.754741644311967,0.012144258216468543,0.0018496944278009312,-0.008002630159264064,2.169503498863946,-0.5712497851007319,-1.2373516824952429
3874,1.658,0.998989201048483,0.006688117437985116,0.002072060066383708,-0.044402160316037775,0.03738169837155573,0.0476416452989209,9.71321653930017,0.008741656085985632,-0.0006944458128655745,-0.010269397620472664,2.163451442441286,-0.5779085042491925,-1.244413287669765
3875,1.667,0.9989889683757451,0.006692789131244675,0.002068844392928548,-0.04440684091542184,0.02260522770138283,0.07093557315102755,9.744703564634085,0.011275680092631312,-0.00040062019521412034,-0.00973078014352462,2.162922314653628,-0.5751697664997073,-1.2388275220994087
3876,1.675,0.9989887647077327,0.006697437284486071,0.0020747117829802717,-0.04441044801121662,0.011638052583793648,0.06572802250184373,9.771191188141998,0.011127914687561493,0.0017849556972586258,-0.00954224208736788,2.158980680206855,-0.5721938528566116,-1.2340014293011758
3877,1.683,0.9989890038944857,0.006689132162086423,0.0020792865087435977,-0.04440610517075369,0.02241197320582349,0.0726290195684388,9.744691534902234,0.008091903045072967,0.0013224450786080157,-0.007541528220150467,2.1633965771040704,-0.5712451492821687,-1.2369080534929642
3878,1.692,0.9989892305872224,0.006681155403259295,0.0020750902919123397,-0.04440240233937415,0.04929681511114023,0.07497878345520496,9.756150526672664,0.008239767062636912,-0.0008640932932889704,-0.007730069247327496,2.161938910922657,-0.5712544209192949,-1.2378952540139478
3879,1.700,0.998989968113351,0.0066814845812560196,0.0020707261871363712,-0.04438596023220489,0.03727315991259309,0.05155958062879834,9.713196950233622,0.010271799425318723,-0.0007370874441125141,-0.0046519595483026435,2.1579929956087582,-0.5785273155587624,-1.2324835654299309
3880,1.708,0.998989251173242,0.006677787400832578,0.00207675031624976,-0.044402368223766274,0.026328281093505736,0.04623236498067364,9.739688797704817,0.009095572273567597,0.0016553198212013245,-0.012620987580027845,2.161229759345188,-0.570552164875589,-1.2410811619006026
3881,1.717,0.9989892463446167,0.006676077575278168,0.0020728552693154313,-0.04440291597470352,0.053190430168784164,0.048693464219966676,9.751148800382095,0.00975773375924593,-0.0006345167382152031,-0.008730670881657703,2.1648293265589125,-0.5702269084292791,-1.2325124009815953
3882,1.725,0.9989892717707207,0.006673955583856867,0.0020875585989685013,-0.04440197408862059,0.0261534125873431,0.04778162674444176,9.739681792085893,0.009461323763163446,0.0037374716058677622,-0.008354476557813942,2.1664170488039853,-0.5735605292486267,-1.2493160546396513
3883,1.733,0.9989892669845766,0.006672245996070419,0.0020836597214717676,-0.044402521833250004,-0.007858681579001495,0.012151945213853238,9.749732207176846,0.009757834744336355,-0.0006354492024763623,-0.008730668295603077,2.1565766126140162,-0.5751720844089889,-1.2391180470805911
3884,1.742,0.9989897607523621,0.006668165187050829,0.0020879787537772137,-0.04439182165333044,0.019017185645647607,0.014619724237948668,9.76119512364926,0.009107534167852873,0.0013839196132991918,-0.006003159913827523,2.1670529467593123,-0.5753883991190659,-1.2361095104754578
3885,1.750,0.998988997540192,0.00666463276542081,0.002075411449706307,-0.04441011293680194,-0.01873903662456359,0.007561419221736351,9.776228222855078,0.009392192284937383,-0.002720749921825393,-0.012997391038074197,2.1594993545119494,-0.5712567388285765,-1.2381572239904368
3886,1.758,0.9989897761236877,0.006664679737204358,0.0020896262095641666,-0.04439192163727393,0.00812999575032267,0.01005672887177942,9.787691120184737,0.009974825876488576,0.003634098131135613,-0.004276570979947238,2.163938400472485,-0.5710705569391601,-1.244230494921404
3887,1.767,0.9989895118110248,0.006669785355726763,0.002068123621445033,-0.04439810941432353,-0.0008630151270448643,0.05003687280892078,9.728198496841152,0.011572885369962142,-0.004779448919633382,-0.010106842367487746,2.161938860090342,-0.5719868097836611,-1.2378883004718997
3888,1.775,0.9989892896922252,0.0066741984822651585,0.0020740041043473757,-0.044402169562056386,0.03403686915081298,-0.004535261350881067,9.729722270542823,0.011126902126873619,0.001778776271105193,-0.00954413464180534,2.1612087168272214,-0.5651534982921916,-1.238202677359617
3889,1.783,0.9989900271802008,0.006674527634613879,0.0020696310049018772,-0.04438572859445149,0.037016439247693454,0.05964148032286211,9.71315166925137,0.010271874475170317,-0.0007392728387509208,-0.004652278891278263,2.161698362979669,-0.5710149271164027,-1.2383876027462024
3890,1.792,0.9989900062789576,0.006672678874692518,0.0020658793394073434,-0.04438665175431656,0.015268807467250387,0.04825553684767916,9.766148124826108,0.009757707454654476,-0.0006390429863470135,-0.008731182835349426,2.1567974790437674,-0.5761184700741502,-1.2359333907221735
3891,1.800,0.9989900172822187,0.00667074934620593,0.002071094064780744,-0.04438645111977614,0.053034470486962554,0.05686428185604493,9.751105424540574,0.009608823429438626,0.0015468141998295824,-0.008543940531969278,2.164888388042728,-0.5678621032210166,-1.2405916417074336
3892,1.808,0.9989902819959785,0.006684112410617966,0.0020590409760833403,-0.04437904313002932,0.026161802563067816,0.05608037266159121,9.739637523723434,0.013456458350717522,-0.0024660423114573767,-0.006841062128366941,2.1592745799853827,-0.5751883097739597,-1.2408072772047558
3893,1.817,0.998990051691682,0.006677752474410481,0.002073278271163339,-0.04438452162806601,0.022162118205233224,0.08557480463946479,9.744587019709883,0.00844363850852183,0.003666803850510925,-0.009896255638450879,2.163663995822037,-0.5700546339955521,-1.2400914583231444
3894,1.825,0.9989897263656384,0.006661708090115754,0.0020501968644893852,-0.04439532581305118,0.008326508297841316,0.01678857466984514,9.787681721872984,0.006506173556311702,-0.005374499358393219,-0.011182874738732059,2.1604582142866606,-0.5687922635212069,-1.235732032727198
3895,1.833,0.9989899946691979,0.0066639866314808375,0.002055508612185273,-0.04438870033417644,0.026321760318485446,0.058277106698652,9.7396241942991,0.010624389960385106,0.001610461914799479,-0.00700557467533046,2.159698280386165,-0.5797433278474763,-1.2319712371815192
3896,1.842,0.998989564746912,0.006675103549229232,0.0020625001911222674,-0.044396380622121465,0.007172399742594773,0.00027878957286605824,9.718261415536697,0.012643894187965068,0.002004419553943095,-0.0105463640190857,2.154857559300908,-0.566613640202361,-1.2377469259610356
3897,1.850,0.9989900742952105,0.0066818124534004505,0.002058782177502225,-0.04438407662589574,-0.011696530229830733,0.05238829074668237,9.754655889076485,0.011789639882104345,-0.0005112472073330212,-0.00565347296683427,2.1692678811404007,-0.577120485562069,-1.2385184543394319
3898,1.858,0.998989825318402,0.006686753697474048,0.0020465809306832046,-0.04438950035529639,-0.007616023639925633,0.024726547865919924,9.749708619090054,0.011424789447901323,-0.0025997819987568418,-0.00991923795576466,2.1629333103475537,-0.5710334703906552,-1.240331664095683
3899,1.867,0.9989895630099515,0.006680831330722434,0.0020425414670260313,-0.04439648087712657,-0.01837909975930757,0.019459352575980415,9.776212463113552,0.008741551277836376,-0.0007096044032740462,-0.010270940283109297,2.166128655344472,-0.5683758594660245,-1.2432634366578834
3900,1.875,0.9989902748845813,0.006670198792182058,0.0020465455117949817,-0.044381874516183514,-0.01839824965880973,0.020123377104133953,9.776211082312242,0.007588534817353065,0.0011488336395608456,-0.005004575869318732,2.16609770703163,-0.5771251213806322,-1.2390299014778567
3901,1.883,0.9989901033493677,0.006685013057802984,0.0020623022090092173,-0.044382777290696784,0.015217596544286505,0.05742009898443111,9.766098624559884,0.013509705640311094,0.004253754578251409,-0.008821917236780396,2.1669965509763163,-0.5650607819209295,-1.228394920910341
3902,1.892,0.9989898192832591,0.006668644997329359,0.002058293711808872,-0.04439181872031777,0.019046575463590447,0.029618713565177535,9.761161076757503,0.006208072064384089,-0.0010071889229746464,-0.010809088485379505,2.1693021783945916,-0.5715495445449446,-1.2432101037010286
3903,1.900,0.9989905426959144,0.006658161007624054,0.002062269547227313,-0.04437692576592434,0.01392364746396763,0.0405868136249354,9.696683871345524,0.007588453139385297,0.0011481127135751976,-0.005004742593673078,2.1651343406401016,-0.5673761618873874,-1.2408386158128948
3904,1.908,0.9989900718119543,0.006669046237496756,0.0020597774098973323,-0.044386006358426565,0.045902405203523663,0.03277008900817881,9.772617841553775,0.01279307320447292,-0.0001867922429080007,-0.010733902591332436,2.1638542867092565,-0.5743794299033024,-1.2327242594263859
3905,1.917,0.9989903102384184,0.006660731232752656,0.0020643031185651004,-0.044381678222309456,0.03381563482706665,0.009334678131013794,9.72971961942685,0.008090073918984848,0.0013105262064281942,-0.0075449964445891676,2.1641058472902754,-0.5702384979756868,-1.233738370537755
3906,1.925,0.9989900879941807,0.0066656165439806,0.0020617274357905193,-0.04438606679408511,0.060683004517478066,0.011886903853643209,9.74117988360878,0.011275398097831976,-0.00041744577231387324,-0.009733061243842852,2.1644090259317923,-0.5681178223888796,-1.2418135087284503
3907,1.933,0.9989903243883206,0.006668338289384105,0.00204875720158516,-0.044380937765058005,0.025955357245872,0.06823570270750234,9.739560499161172,0.010923762067376297,-0.0027672180120190304,-0.00737896363542768,2.1550799053441247,-0.5719566769630009,-1.234764671448886
3908,1.942,0.9989908100867618,0.006664182642126942,0.002053447652316231,-0.04437041113903739,0.056889684057815415,0.04221437211365994,9.74609559851078,0.009105772118223984,0.0013760231908257973,-0.006006388402611369,2.1653870588965893,-0.5722703438629031,-1.2420110896708945
3909,1.950,0.9989900469801408,0.006660653432472269,0.0020408020619476484,-0.04438870191177994,0.02312525350707083,0.00651907267648517,9.756225688457224,0.009393587766312312,-0.0027395794029474716,-0.012997243235762571,2.1602278995528694,-0.5754023065747551,-1.2376242203250063
3910,1.958,0.9989893511501214,0.00666737733055242,0.002047265188779386,-0.04440305252388522,0.026083375023453145,0.07065852579671791,9.739542881770898,0.011626432659205238,0.0019290492084611643,-0.012088173978287124,2.1587328921698097,-0.5734098651453254,-1.2335033785551106
3911,1.967,0.9989900428995194,0.006657340706718497,0.002032968863475461,-0.04438965014428562,0.01808688910854951,0.01853014371395392,9.691741849938643,0.007888843212919319,-0.003227111224725429,-0.005376705240671822,2.1629133577286357,-0.5756464361962105,-1.2376022709119305
3912,1.975,0.9989898394448401,0.006662048553691041,0.0020391510817128465,-0.044393238876059254,-0.0076218324392667075,0.035768980272551536,9.749674355858483,0.01112456386741722,0.0017658691996651613,-0.009548395371329276,2.1588131825567487,-0.5737583006844509,-1.244486600142777
3913,1.983,0.9989896223505254,0.006666488893296283,0.00204498181035613,-0.04439718922618456,-0.0037793679749171445,0.008065985160381673,9.744763698303132,0.011124528495398528,0.001765264483064824,-0.009548509201716108,2.1653246823596364,-0.5709685689307716,-1.2334783704581844
3914,1.992,0.998989633787738,0.006664606604472119,0.0020502669500280374,-0.04439697071741065,-0.034808390451966716,0.03572513816656194,9.73820815893629,0.009606940342744162,0.001535672912494521,-0.008547421488222273,2.157779640378744,-0.5722193498587088,-1.2366957068242574
3915,2.000,0.9989891730068086,0.006675651923328835,0.002047619752463931,-0.04440580074630558,0.0069202462542251935,0.015880070168175546,9.718248627978374,0.012792757599431319,-0.00019350959212872774,-0.010735106544838433,2.1617374549004613,-0.5735072173351506,-1.243735132440939
3916,2.008,0.9989893952612152,0.006667601666710474,0.002042876453423366,-0.04440222854139395,-0.03882053769860754,0.06608857282488412,9.743100974545138,0.008240118362928938,-0.0008808839153981609,-0.007731525044257332,2.161033707977377,-0.5720795261549234,-1.2476603631653094
3917,2.017,0.9989891187449441,0.006650861605406048,0.0020471523067510313,-0.04441076262055472,0.018966153292070267,0.04165485862586397,9.761117290745064,0.006057308004357366,0.001169670491138092,-0.010624731265249373,2.1536489913289545,-0.5722448468608059,-1.2394114006008587
3918,2.025,0.9989889224068947,0.006665798895055433,0.0020532158305814037,-0.04441265966090575,-0.008071202710589667,0.040657383713559626,9.749654836226092,0.013657592344634222,0.0020595568507554393,-0.009011429567367304,2.170697518871367,-0.5695061091113207,-1.2336971375093833
3919,2.033,0.9989896458809411,0.0066553103690262985,0.002057174360448742,-0.04439777359524668,0.018698589546060095,0.04332339946687042,9.761110544558885,0.00758753243692398,0.0011438723129515973,-0.0050064111403875095,2.158572787110705,-0.5713216402884602,-1.2449998095011756
3920,2.042,0.9989894521776901,0.0066702900311489816,0.0020639986291074285,-0.04439956732084918,0.02945417019910196,0.050245041334650395,9.734591472670191,0.013657524484066898,0.00205838348295666,-0.009011650546924564,2.165155433990383,-0.5720424396064185,-1.2437240538959282
3921,2.050,0.9989896904023214,0.00666196990291862,0.0020684956119361893,-0.04439524696170164,0.0602217291906609,0.024330817244604095,9.74115961124038,0.008089105471883542,0.0013035691496378664,-0.007546925072225682,2.1590339981541846,-0.5754370752139785,-1.2412949902423116
3922,2.058,0.9989894601165527,0.006666666882699158,0.0020649726243016126,-0.04439988757616133,0.04528863840174269,0.04767497236305023,9.772559357842793,0.011275366718238956,-0.00042626995961974517,-0.00973416940418202,2.164877087354912,-0.5763927325162661,-1.2390457784588713
3923,2.067,0.9989894704946549,0.006664724911977499,0.0020701231082524175,-0.04439970577575827,0.06013754656427543,0.025973258893376858,9.741155891246382,0.009606469761429903,0.0015312486625265955,-0.008548502396315726,2.164173272655406,-0.57594155982186,-1.2429617377938447
3924,2.075,0.9989890411348756,0.006675751611095975,0.002076643794558706,-0.04440740460103564,0.022203952644097344,0.019012594855128913,9.756211483103673,0.012641383572694778,0.0019876638821948464,-0.010551321114953481,2.1668095243099184,-0.5651349550179392,-1.2362086447519234
3925,2.083,0.9989897939354563,0.006675851250947847,0.0020813692146604704,-0.04439023006319042,0.02893686054870813,0.05459565700356657,9.734569593813882,0.010120647909732876,0.0014392174315942955,-0.004469141120374625,2.1601607114052093,-0.5662814300282065,-1.2284333029318073
3926,2.092,0.9989895271633691,0.006669587285856525,0.0020872139115066814,-0.0443969003583842,0.021944305294789305,0.02070123844470528,9.756208631174598,0.008590573712151656,0.0014607878454001432,-0.010087878059108692,2.1561630098695908,-0.5794196401635561,-1.249335383190587
3927,2.100,0.9989892495295721,0.006663894565404555,0.0020739723505246144,-0.04440462219468486,-0.0048989602642863376,0.019587411242495596,9.744746851064837,0.008893939469659115,-0.0029129928669079466,-0.01045607782101662,2.162890395050472,-0.5721984886751746,-1.2344611204935945
3928,2.108,0.9989895283640724,0.006666314521878785,0.0020789256442640164,-0.04439775374711344,0.022053412786963975,0.022208822812738706,9.7562050709116,0.010622021574142656,0.0015978869533542167,-0.007010039642589603,2.156086763132307,-0.5722402110422428,-1.2389053075258138
3929,2.117,0.9989895527657437,0.006675190350868052,0.0020757068200505393,-0.04439602166722515,-0.035821035848189686,0.04808562066363499,9.73815129856156,0.012291275569488544,-0.0003610666925924739,-0.008195458763267143,2.159710840414081,-0.5787830347266255,-1.2336893702608078
3930,2.125,0.998989335021455,0.006680149394191609,0.0020724946740488482,-0.04440032526107293,-0.03176817702503591,0.020430738941140694,9.73328160303073,0.011275408653829458,-0.0004309218927413498,-0.009734662024140073,2.1641754978094947,-0.5695965075733014,-1.243266124923483
3931,2.133,0.9989893452521058,0.006678204705510041,0.0020776281386131936,-0.04440014770244262,-0.019825941696340183,0.04568236147788254,9.776122270379144,0.009605961204426377,0.0015271242301747095,-0.008549599137917037,2.165864992226375,-0.566885584735195,-1.2405937743456577
3932,2.142,0.9989885936783417,0.006673960769103503,0.0020831920458535304,-0.044417431928491465,-0.009073089599733663,0.052480824372236036,9.749597477682029,0.009091682426728852,0.0016156551706227955,-0.012629395165885089,2.161206695002394,-0.5685689950832855,-1.2379261043981704
3933,2.150,0.9989893464789825,0.006674058046277608,0.002087910744332047,-0.04440026125390113,-0.005169639282348574,0.02465193974218165,9.744735215690595,0.010120115528246902,0.0014375610666788983,-0.00447005242329798,2.1636141962571056,-0.5675484363211145,-1.2332791900370723
3934,2.158,0.9989885541007694,0.0066706868120656685,0.002066510757530057,-0.044419593046303704,-0.005029035761595213,0.025450162040820474,9.74473323755729,0.009548422049476216,-0.0049459472417860886,-0.013179836313729112,2.1655884471423645,-0.5709940659328687,-1.2361619398545058
3935,2.167,0.998988351470432,0.00667488560360324,0.002081424198970918,-0.04442282298405191,0.02190866122548617,0.02813369382487833,9.756190111298084,0.010970567590800588,0.0039399453756791564,-0.009368496732413596,2.1506956908325945,-0.5792944730623519,-1.2361919990000212
3936,2.175,0.9989881040296898,0.006669250356645797,0.0020774473381051503,-0.04442941952585457,0.01773756216590738,0.05754570627845982,9.761038853414362,0.00874229831540889,-0.000731872659964885,-0.01027255959685891,2.1592696497659403,-0.5690781155097305,-1.2401328540928214
3937,2.183,0.9989881291912707,0.006667070081967952,0.0020917028317545437,-0.044428512137043324,0.036576215032384556,0.0071013952433701,9.724814353614097,0.009452975765292453,0.0037111762521545946,-0.008367266419121172,2.160976837759439,-0.5685875383575381,-1.2398808738744111
3938,2.192,0.9989886234648276,0.0066736065143682965,0.0020878598611218024,-0.04441659605531346,0.05930262480726751,0.038432959915107284,9.741119820784657,0.011789759173222562,-0.000522390665663928,-0.005655242618932238,2.1600269687979297,-0.5700870847254937,-1.2435359520198268
3939,2.200,0.9989888758056148,0.006676103579753156,0.0020839691024924062,-0.04441072765004744,0.06618454988578572,0.07398987463907804,9.71943502482001,0.010773955112558192,-0.0005931295136183904,-0.0071944347616960565,2.16413995815931,-0.5673529827945718,-1.2384045235785093
3940,2.208,0.9989891115944127,0.006678398239206121,0.0020800167437345506,-0.044405263686993456,0.0485094813618908,0.03420327521779702,9.767636799569694,0.010773929100324186,-0.0005935960474990323,-0.007194522722589697,2.1597042950283325,-0.5702292263385607,-1.232794002523811
3941,2.217,0.9989884231783096,0.006684760329509624,0.0020954433919608364,-0.04441906631215689,0.05924630401238343,0.04113771220983734,9.74110911685049,0.011471317869397047,0.004093496627700906,-0.011910685703309202,2.1629064226284704,-0.5727076091016196,-1.236653592685899
3942,2.225,0.9989881025102416,0.006668854726269929,0.002072722621841945,-0.04442973374397601,0.014685784128039548,-0.0006561508883670374,9.77786212988519,0.0065153022434438915,-0.005407334045548106,-0.011175450695261956,2.1642303970349204,-0.5757716032974144,-1.2507759947949828
3943,2.233,0.9989888258681954,0.006658360313844593,0.0020766544321891376,-0.0444148571402067,0.032568133362596036,0.0405759668594448,9.729643745225253,0.0075863239550971896,0.0011373572681801075,-0.005008714837960626,2.153879153565801,-0.5678319704003564,-1.2374983523769065
3944,2.242,0.9989888747884486,0.006666636813706758,0.002091145930287277,-0.044411835260460324,-0.012247410515562855,-0.0011586976888743352,9.766403357607464,0.011985028746549319,0.004006075978788277,-0.007831506983667361,2.163902420275568,-0.5751744023182706,-1.239308629545347
3945,2.250,0.9989883992449928,0.006666854455862828,0.0020967764678922586,-0.0444222326547751,-0.00565428485158334,0.03436958337787727,9.744705517782188,0.010106634525711094,0.0016768515246366321,-0.011092251893160118,2.160472355592672,-0.5707638437671025,-1.2376664747368504
3946,2.258,0.9989884284887032,0.00667584186759459,0.002093696841246107,-0.04442037049110997,-0.043487674133723064,0.027377230042976115,9.759770272424344,0.012291311595444929,-0.00036847771390180863,-0.00819646295353426,2.1636870940530417,-0.5715495445449447,-1.243251151520275
3947,2.267,0.9989884527591678,0.006684716094517087,0.0020904442855000896,-0.04441864323984918,-0.016562689294768455,0.030259559837616506,9.771226534117446,0.012291278246189936,-0.0003690835377430016,-0.0081965772303174,2.15679948392449,-0.5729471029045119,-1.2362076458362707
3948,2.275,0.9989891907697516,0.006685073278076929,0.0020859650376851653,-0.044402198935705996,-0.020580927951339603,0.059787878005018884,9.776044621057059,0.010272518902971454,-0.0007526554512687762,-0.004653931329788887,2.1617482472651264,-0.5723004766835632,-1.245211460269021
3949,2.283,0.9989884579196413,0.006681078605157666,0.0020914544189173396,-0.044419026896402314,-0.009740681524727261,0.06658857689852675,9.749510685939327,0.009090555124501621,0.0016025105499567148,-0.012632082453733592,2.1689958033086727,-0.56829473264117,-1.2346977119549067
3950,2.292,0.9989887308614597,0.0066940857284591695,0.002088549633331126,-0.044411066059032014,-0.016611209443191027,0.03287501662276715,9.771218002892324,0.013306968779728878,-0.0002990396653611338,-0.0066577124830960125,2.156400174983021,-0.5769690723118759,-1.2483802845820633
3951,2.300,0.9989889539106824,0.00668599438833126,0.002083857286407186,-0.044407487907902,-0.009754517009622429,0.06837240154113082,9.749498325020573,0.008241085873998539,-0.0008966780259419604,-0.0077322352906721735,2.166315410905189,-0.5722077603123009,-1.2354126272587116
3952,2.308,0.9989884872480476,0.006686306009705332,0.0020892731409078206,-0.0444176833653624,0.025246051832364117,0.013794798132584826,9.751328998707251,0.010106032848547573,0.0016719057758282135,-0.011093498179261896,2.1646565767513666,-0.5703196248005414,-1.2422791096116248
3953,2.317,0.9989889675845106,0.006682425133777794,0.0020847083573533004,-0.04440767760005596,0.03201559726603189,0.04920203436717801,9.729605782242011,0.009256853165171124,-0.0008256260008870638,-0.006193192835976762,2.158519452219271,-0.5683225475525487,-1.2377039307126905
3954,2.325,0.998988949577625,0.006680569419171401,0.002080681894302932,-0.04440855071812842,0.06304362561321848,0.02326897942254338,9.736252935520024,0.009758279630827581,-0.0006710896983277392,-0.008734309447377986,2.1709806432293353,-0.5734631770588012,-1.2390289754322303
3955,2.333,0.9989892165894226,0.006682826065155073,0.0020858979214626945,-0.044401959457847105,0.03203273925133335,0.0508031448601873,9.729597498179725,0.010620066678715514,0.0015873458207377013,-0.007013830303875828,2.1626784177692926,-0.571751951799332,-1.2388617566500928
3956,2.342,0.9989892575047652,0.00669155082058208,0.002092167055199156,-0.044399429891694424,0.025093043747786786,0.017113359349472942,9.75132413561322,0.012137188799484128,0.0018135506957032911,-0.0080159115019675,2.164884310504863,-0.5751813560461153,-1.2400338600898415
3957,2.350,0.9989889807164102,0.0066747989585106285,0.002096332169655711,-0.04440798191188715,0.04778631387135014,0.04837989064313561,9.767580431877997,0.006055780903241441,0.001143078235997822,-0.010629311159669783,2.170215541891926,-0.5817218618212167,-1.2345613069117265
3958,2.358,0.998989776204823,0.00667512061029522,0.0021107353231581897,-0.04438935232093186,0.004676510752860389,0.05120295277660006,9.718128051300873,0.009964359692801105,0.0036189010003283115,-0.004291747077923948,2.166344100175734,-0.5702918098891627,-1.2393371396144008
3959,2.367,0.9989890724862405,0.006681709815021989,0.0021169758606622248,-0.04440389870534929,0.013674626275963367,0.013386847011047353,9.77785445626738,0.011622972384510018,0.0018939522035297909,-0.01209632811184411,2.1612095864529044,-0.5783388157600644,-1.2383216367013088
3960,2.375,0.9989885915056304,0.006682333054868468,0.002113644194513249,-0.044414783290705744,-0.0024003508413114423,0.018354494155156015,9.739860581875018,0.010260096934592115,-0.0005201687973611018,-0.011275453587891806,2.161968842589197,-0.5771529362920108,-1.241989718353014
3961,2.383,0.9989885865382976,0.0066806195067288686,0.0021095825826987252,-0.04441534589022445,0.020451125351475887,0.049704589991450714,9.756107223929822,0.009758593143105888,-0.0006745227792014357,-0.008734392044596567,2.1758973683580805,-0.5715541803635077,-1.2436501633277208
3962,2.392,0.9989886319713746,0.006689316747007216,0.002115554754385642,-0.04441273084940237,-0.01736820945621952,0.042672651916629376,9.771178809871856,0.012136839938250458,0.0018110627910958128,-0.008016613185744707,2.158797443028536,-0.5690989766932645,-1.2423335313554111
3963,2.400,0.9989883843150019,0.006694221535167196,0.0021030021663161224,-0.04441815826471458,-0.013244099448475514,0.015018591746247553,9.766390577311077,0.011430282581374032,-0.0026362951376478175,-0.009917290837689541,2.164383888931856,-0.5702825382520366,-1.2383749247225235
3964,2.408,0.9989888527166272,0.0066901949999212465,0.0020983818179230924,-0.04440844776083767,0.013789789862502348,0.017794340279338832,9.777847265378256,0.009257105941373214,-0.0008293988354331522,-0.006193403691547583,2.1692465166844377,-0.5763602817863241,-1.235595930698809
3965,2.417,0.9989881194164989,0.006686193828802042,0.002103820235791455,-0.04442528578621121,-0.022379973896942462,0.05525982737750056,9.706636926527676,0.009089551560710648,0.001590178833365157,-0.012634574962009494,2.1631289042245276,-0.5760976088906162,-1.2336898809525438
3966,2.425,0.9989889642710955,0.006707632643900169,0.0021199671200918917,-0.04440228224188951,0.013519572780943756,0.019526385800629324,9.7778443416917,0.015028548435129904,0.004215949940394566,-0.0032195664935719555,2.1614610623133967,-0.575418531939726,-1.239324158575931
3967,2.433,0.9989887310893838,0.00671229540977367,0.0021165382216975824,-0.04440698720597344,0.031012259422193218,0.06118324449942771,9.729541067772647,0.01127576218284964,-0.00045193730445848,-0.009736802295387769,2.1604184276575595,-0.57630928778213,-1.2302894712911385
3968,2.442,0.9989890013300161,0.0067151576065951285,0.0021130218096080643,-0.044400642099058765,0.004157831974150745,0.0601329720347493,9.718077133560573,0.010774292939727457,-0.0006050461227161999,-0.007195595068965187,2.1673420857594485,-0.5698313655576306,-1.2422641137405972
3969,2.450,0.998988753638524,0.006708989557736064,0.0021179379145042977,-0.04440691277102514,-0.0026479838706385725,0.026321372578490834,9.739842245168541,0.008588039624167548,0.001434345806540277,-0.010093793979252974,2.163430179649953,-0.5756835227447153,-1.2415046711132383
3970,2.458,0.9989887625885553,0.006707006200565762,0.0021229895165513534,-0.044406769811886786,0.034996296004595875,0.03499318157414929,9.72475980132106,0.00960361697278432,0.0015075376846809066,-0.008554765076238764,2.1641931405537997,-0.5725492421235817,-1.2456795417408502
3971,2.467,0.9989890148240296,0.006709503033468264,0.0021190445367267386,-0.04440090629943176,0.04686701788512555,0.060409442240463615,9.767517896786018,0.010774355560857554,-0.0006061322732847353,-0.007195677274508511,2.1607203639030836,-0.5663741463994687,-1.238194657498457
3972,2.475,0.9989890095595358,0.006718397607757112,0.0021064468122871517,-0.04440027921836808,0.0200999321328212,0.05939975458838981,9.75605374409559,0.012446578444245803,-0.002567879823624907,-0.008377902116036185,2.1624577546688024,-0.567876010676706,-1.2420742271767022
3973,2.483,0.9989887761229889,0.006711982723879073,0.002120487187808062,-0.04440583297602081,0.03503827860008971,0.03761305695903789,9.724749869705128,0.008432412997437643,0.003618903965078807,-0.00991467183623073,2.1571098009954333,-0.5708356989548309,-1.2452592764211903
3974,2.492,0.9989885126433994,0.006705528244967399,0.0021249184305345784,-0.044412523224298325,0.023958504816889513,0.03232991182065435,9.7512884098142,0.008587790523692174,0.0014313914711444966,-0.010094430677529078,2.165656601104014,-0.5661995540564599,-1.2454849745466172
3975,2.500,0.9989882362250684,0.006699849501447005,0.0021115505683512166,-0.044420234744795874,0.013145836463727367,0.027067738070980365,9.777826878567279,0.008898756814908383,-0.0029431539836293286,-0.010453699485209238,2.159062941586306,-0.5698591804690093,-1.2452542703082408
3976,2.508,0.9989879808269944,0.00670411334617045,0.0021076226212069647,-0.0444255214300708,-0.017730534874234663,0.0545342349959308,9.771119156820967,0.011275687278883784,-0.00045672934861682455,-0.009737539019615347,2.1611796039540505,-0.5731726892517147,-1.2342202188201945
3977,2.517,0.9989880046772752,0.006712984885750974,0.0021043123664250835,-0.044423802339563535,-0.009454279718561729,-0.0017353192329156008,9.761615544325878,0.012291242390294811,-0.0003828709661547642,-0.00819854218176036,2.1631685044684725,-0.5712660104657028,-1.2391069460677606
3978,2.525,0.9989880012752864,0.006711394295434703,0.0021005751705497015,-0.04442429603913515,-0.0026665716648474236,0.03374478630493434,9.739819350321042,0.0097586928544743,-0.000683483266637537,-0.008735339253660664,2.1616643876634742,-0.5719474053258746,-1.2337399924842427
3979,2.533,0.998988253422534,0.0067138896435589065,0.0020966166736251473,-0.04441843545391818,-0.009358209236507518,-4.617321239141392e-06,9.761615790160711,0.010774257419579414,-0.000609262201197986,-0.007196325517744813,2.1592250176379215,-0.5692642973991469,-1.2340274587815745
3980,2.542,0.9989885017123569,0.006716494789908817,0.0020931976532474615,-0.044412618340088764,-0.002569004674115103,0.035452228433374415,9.739813311825483,0.010774233284522157,-0.0006097290600939343,-0.007196413719942098,2.171709747425723,-0.569552467296952,-1.2385724607293278
3981,2.550,0.9989882248877796,0.0066997351394490305,0.0020972963795367464,-0.044421182250370256,0.009299740689464979,0.06076827290952907,9.782550624006042,0.006054581011465181,0.0011269555619332179,-0.01063225622027348,2.1604541536929007,-0.5758673867248503,-1.2351765689569554
3982,2.558,0.9989885079981058,0.006712969304943857,0.002094682592043979,-0.04441293995750448,0.00150443379579146,0.008306114823707385,9.73507062827385,0.013306716031057856,-0.00031006677643791283,-0.006659924039790775,2.1560762079851137,-0.570029136993455,-1.2374614295606223
3983,2.567,0.9989878031743071,0.006719546186352409,0.0021008502449363364,-0.04442750540228671,0.046951334790916954,0.07052790839366165,9.76744967128916,0.01162069203009762,0.001876237009275004,-0.012101011982853382,2.159734345303607,-0.5744188343610888,-1.2369046917943227
3984,2.575,0.9989882718976172,0.006704922843723591,0.002104642856541395,-0.04441899480086193,0.05096413317649562,0.0426571941908382,9.762712870858504,0.00656876341961097,0.0010503747997143219,-0.006551837687395909,2.161235011502627,-0.572023896332166,-1.241799624112174
3985,2.583,0.9989882956473259,0.006713793592592048,0.0021013179210016947,-0.04441727814985961,0.024044237361370523,0.04143131146022324,9.751253778211511,0.012291178488246514,-0.0003864947098242628,-0.008199149373838041,2.1621439531036715,-0.5687621307005467,-1.232545939631418
3986,2.592,0.9989880263527127,0.006707861412790719,0.0020973346769949347,-0.04442441880804147,0.03495398189902543,0.04824604301527465,9.724703233813175,0.00874318083611864,-0.0007629887716752275,-0.01027487281407783,2.1702300220800392,-0.5788108496380042,-1.2365421058683659
3987,2.600,0.998987792793974,0.0067125211645631825,0.002093859681134088,-0.04442913075760038,0.02413396813319345,0.043103170074989636,9.75124630912373,0.01127554844133126,-0.0004629774102540105,-0.009738487082080501,2.1592388370059377,-0.5758743404526949,-1.2359178616915896
3988,2.608,0.9989885109907561,0.006702958146173712,0.0020799919786532524,-0.04441507507514882,0.024282078544372712,0.04388368232923873,9.751242458567859,0.0078971714249265,-0.003249753244288358,-0.005369978557207387,2.159045078568635,-0.5700801309976491,-1.2428107214753326
3989,2.617,0.9989883348556039,0.006717702687997307,0.002095572829267373,-0.04441607667884232,-0.040404056592531684,0.03478511392936174,9.754877853242226,0.013494578869016338,0.0042109344747373574,-0.008845761196817072,2.1641540655771117,-0.569812822283378,-1.240334329893463
3990,2.625,0.9989875756054664,0.006713764660036439,0.0020916357898730846,-0.04443393083810532,0.028240104875002354,0.01706508660944771,9.74651736359907,0.009244424391702848,-0.0006166592291479495,-0.012816903742165101,2.1590393689203595,-0.5751998993203677,-1.2420296773853285
3991,2.633,0.9989878133493816,0.0067165100392284,0.002078522434190678,-0.04442878590289007,-0.047128868639849414,0.001956088301662695,9.776705970942814,0.010931055324614192,-0.0028011599878851683,-0.007375170356132926,2.1681189168636252,-0.5725747391256788,-1.248336340820272
3992,2.642,0.9989847229087165,0.00670360798776911,0.0021434864969875587,-0.04449708418064009,0.0056937411915890124,-0.011910082636402546,9.730347282677853,0.009601761209270337,0.0014966882014564005,-0.008558281233805797,2.16638682908766,-0.5718122174406525,-1.2451821868956463
3993,2.650,0.9989847299468084,0.00670163329163646,0.002148533779032005,-0.044496980200090824,0.0014170797772065406,0.017484397385615344,9.735058481320412,0.009601737759964485,0.0014962228357731514,-0.008558369220246463,2.1661262099170187,-0.5778945967935032,-1.2429289175127034
3994,2.658,0.998984933931023,0.0067041744263212424,0.0021444550154061507,-0.04449221433889982,-0.013640529218091892,0.04098014185313597,9.766315601351495,0.010774268179359787,-0.0006151316781459025,-0.007197222991611315,2.1702737168059545,-0.5664158687665367,-1.2425192704485237
3995,2.667,0.9989852274352162,0.0067169956002004465,0.0021504372615165517,-0.04448340090303979,0.02405726002927755,0.04992279179470378,9.751213970732392,0.013149455476406523,0.001872581891213033,-0.006483277607008113,2.160739333763907,-0.5759206986383262,-1.240789615535948
3996,2.675,0.9989854292511797,0.006708559421030191,0.0021548983509623075,-0.044479925667977385,0.023926623353544643,0.05078694716943578,9.75120982659584,0.00808488997513659,0.0012700780979859004,-0.007555925502275604,2.1634533117691674,-0.576690174051197,-1.2446690000050677
3997,2.683,0.9989857224971103,0.006721380100643274,0.002160877178784239,-0.04447111316672542,0.03465843953172644,0.05759212514575701,9.724653435543855,0.013149378606624164,0.0018717335793166955,-0.006483468460002423,2.1599913105390103,-0.5695524672969519,-1.2386581257434073
3998,2.692,0.9989854026384745,0.00670537570371726,0.002137409482336248,-0.04448184722583357,0.05082571988032637,0.05448576613587271,9.762654743491037,0.006525647626073798,-0.005446254693753779,-0.011166586338064843,2.169032856460533,-0.5744466492724675,-1.2397663508408472
3999,2.700,0.9989857096196134,0.006717942272450205,0.0021525219308642105,-0.04447232708953976,0.03901821985253506,0.03056889822126522,9.719948054236864,0.012991733396188124,0.004058437866843617,-0.006306622344177785,2.1629276854198025,-0.5749325906060967,-1.2395622092424259
4000,2.708,0.9989858852367417,0.006710270494905575,0.0021389069046664857,-0.044470197266286496,0.02811702304848952,0.025500981861875983,9.746499298171601,0.00839954062610252,-0.003106320056876507,-0.00791091664354651,2.157121801867882,-0.5779316833420081,-1.2469009205379507
4001,2.717,0.9989863933737336,0.006716967927395256,0.00213510509794067,-0.04445795229453848,0.06601189705057968,0.03429893152124128,9.731394954198803,0.011789769472903987,-0.0005411294674715123,-0.005658588889196146,2.160194144510041,-0.5731610997053069,-1.2330067420785882
4002,2.725,0.9989864027442409,0.006704593627520187,0.002139184141096496,-0.04445941348716126,0.03240796650434548,-0.0015267410544156058,9.741806710084337,0.007068945416902014,0.0011902071682767178,-0.009095807699379899,2.1594981121159544,-0.5634422730327223,-1.23798727200706
4003,2.733,0.998986653407176,0.006707080153618,0.002135226886102769,-0.04445359598827554,0.03907004408559932,0.033748892275307314,9.71993732296019,0.0107742548282083,-0.0006189461503595869,-0.0071977377942044505,2.1644567189513717,-0.5752601649616882,-1.248337614816329
4004,2.742,0.9989868983646242,0.006709313248010464,0.0021310180356606786,-0.044447955787640755,-0.009487482619150221,0.020713451384548488,9.761593689117404,0.010774231786076794,-0.0006194132319660223,-0.007197826122376799,2.1643875089788835,-0.5695547852062334,-1.2388701244616835
4005,2.750,0.998986618943068,0.006692537735173795,0.0021350932095879423,-0.044456568562445016,0.0173785372361662,0.023449363030678582,9.773044386398471,0.006053244196219633,0.0011111833590706703,-0.01063522549800341,2.1566100965511636,-0.5813193652217232,-1.24369843976942
4006,2.758,0.9989873947773741,0.0066924999160015335,0.0021487550797570647,-0.0444384785112733,0.005336277184014396,-0.0006409262962603336,9.730354753725084,0.009957436858683968,0.003608410224675158,-0.00430228098477778,2.1561557867196393,-0.5806310166337069,-1.2483473015596165
4007,2.767,0.9989866600477312,0.006699568245762314,0.0021366198361826697,-0.044454512568189046,-0.013930350535449335,0.05155477449184139,9.766265096206382,0.01193453098529151,-0.002515518278561777,-0.012458687882763563,2.1584639599501676,-0.5706919885793742,-1.230112936183964
4008,2.775,0.9989864379642494,0.00669384439284304,0.00213219818768711,-0.0444605773875532,-0.020474186870812386,0.017852161161252506,9.78814426551179,0.00874326965397797,-0.0007764601847367415,-0.010276126419131773,2.165644125796623,-0.5659391990700338,-1.2437784307040751
4009,2.783,0.998986688598422,0.006696330494010893,0.002128231580417121,-0.044454761178257106,-0.007078057816935596,0.08772956340868089,9.744370287428398,0.010774258457995024,-0.0006211369174489109,-0.0071981050036738796,2.162412919211524,-0.5709917480235871,-1.2359410176972634
4010,2.792,0.998986677249689,0.006694153983894422,0.002133441009497278,-0.044455094303408105,0.023956271987811605,0.062005598824527185,9.751144871117804,0.009600566982065803,0.001487793169492198,-0.008560835191804896,2.1651730089582677,-0.5759716926425202,-1.246128199323898
4011,2.800,0.9989864264801642,0.006687961547728554,0.002138294009521591,-0.044461427973659054,0.023833715983460065,0.06274633370149298,9.751140432590713,0.008585047570845957,0.0014092016062744535,-0.01009998154276653,2.1663721455702865,-0.5776527850813294,-1.243173573770815
4012,2.808,0.9989863847585174,0.0066863783841255384,0.0021339771732089012,-0.044462810894453295,0.02379996764774817,0.06349350833555466,9.751135679054613,0.009758841676167699,-0.0007004574012708613,-0.008737252073803327,2.162419667926533,-0.5766160009541873,-1.236864199602452
4013,2.817,0.9989856476692399,0.0066823481244000175,0.0021393038238521384,-0.04447971845192867,0.023759624330966296,0.0642612894403836,9.751130747593898,0.009085986460198814,0.0015532838525842243,-0.012642477668453781,2.163239820986313,-0.5723352453227866,-1.2488625986205997
4014,2.825,0.9989864027105803,0.006682215681513926,0.0021529611689691964,-0.04446211815878368,0.02774319372240678,0.03641906454695271,9.746465688693169,0.009956231624069152,0.0036069956173113947,-0.0043039017559758095,2.1622292414864726,-0.5742442420180802,-1.2442128557204162
4015,2.833,0.9989861516950345,0.006676022561500158,0.0021578047562974905,-0.04446845312059016,0.012481763812002791,0.05987500815975159,9.777681889134406,0.008584991749613299,0.0014069910848125981,-0.010100353809072846,2.1644464010216495,-0.5696312762125247,-1.2469261867140284
4016,2.842,0.9989863576031409,0.006678859133395473,0.0021351728614291124,-0.044464493703834054,0.058767376470614065,0.011441197327146166,9.753255909826708,0.01109183192882012,-0.004998420992170135,-0.007549975214052715,2.1599646769815033,-0.5675646616860853,-1.2350148220438635
4017,2.850,0.998985864571067,0.006679296677347817,0.0021315097031704626,-0.044475679303180915,0.042960953441674846,0.016139704581927403,9.715240709437351,0.010259934264200571,-0.0005583020983341154,-0.011279827830203407,2.1645996557011142,-0.5675600258675222,-1.2344926667786786
4018,2.858,0.9989858755699664,0.006677231516560135,0.0021371071489990354,-0.04447547373571158,0.02786225053329341,0.0396529014735376,9.746452728386936,0.009600043817595402,0.0014841755795422745,-0.008561903320762301,2.1543938181094506,-0.5732375907115984,-1.241105636837973
4019,2.867,0.9989856401004957,0.006681879841782232,0.0021335994786636494,-0.04448023277870436,0.0428801562151771,0.01779550428600895,9.715238175155404,0.011275424039589258,-0.00048054710690459884,-0.009740901579578623,2.1551782112456794,-0.569886995380388,-1.2482123024956047
4020,2.875,0.9989854092837344,0.006676033652895387,0.00211941511202198,-0.04448697216554612,0.039776929361727095,0.06612991882849632,9.789105336214389,0.008902451462530183,-0.00297095830880637,-0.010452299584430056,2.1563272094106654,-0.5739444825738673,-1.2383990517094632
4021,2.883,0.9989852297737603,0.00669074596931887,0.0021349730908618828,-0.04448804898108227,0.016082506094599054,0.01742582835927238,9.703784201191269,0.013489021281340436,0.004195765679752236,-0.008854646765616888,2.167833584295673,-0.5747185938053015,-1.2427024336151353
4022,2.892,0.9989839640196919,0.0066786844447051085,0.0021308496553595017,-0.04451847128258065,0.00183989562796103,0.05988460790232375,9.804207772027922,0.007213646592915981,-0.0008000183164159438,-0.01589740766763431,2.1612203449293585,-0.5776203343513875,-1.239793328834692
4023,2.900,0.9989837282738534,0.0066833321158817054,0.002127332992220598,-0.04452323180364518,-0.025961160080111706,0.03961857695195202,9.723534659160139,0.011275393218692028,-0.0004825900307097077,-0.00974129472960666,2.1561045922617676,-0.5725075197565137,-1.2413442206640235
4024,2.908,0.9989840190837308,0.006685728977938632,0.002132336162428935,-0.04451610703825316,-0.026007649642724683,0.040503646284544385,9.723530888089355,0.010614982622052524,0.0015610171269918166,-0.007023784341678963,2.1632164177614177,-0.575234667959591,-1.2456611841711807
4025,2.917,0.9989842833903637,0.006687953338179125,0.00213748208004848,-0.04450959435386342,0.004970029500784686,0.014856976530467546,9.730343626546977,0.010614961069499418,0.0015605605680012653,-0.007023870829901408,2.1577974356199943,-0.5729749178158906,-1.2391299842677685
4026,2.925,0.9989845566579787,0.006690239773669794,0.0021424202140568646,-0.04450287952773009,0.007244311042885156,0.07885544108072101,9.713038335672373,0.010614939561307492,0.0015601040117627875,-0.007023957317600938,2.1609764649891283,-0.5739583900295567,-1.2398298812327255
4027,2.933,0.9989847784919255,0.006682141437458068,0.0021376276139456088,-0.04449934691018478,0.01662249082617041,0.041320296997789364,9.772986483546262,0.008242692333743995,-0.0009306189615038075,-0.007734541155855441,2.157029663105441,-0.5682900968226069,-1.234296915459668
4028,2.942,0.9989850361956637,0.006673829928302799,0.0021421901956743617,-0.04449458924861041,0.0005736412896871915,0.04576360438315932,9.734966702324563,0.008083007753302385,0.001256564671652719,-0.007559812319387538,2.159504928607384,-0.568090007477501,-1.238919725301646
4029,2.950,0.9989853134445169,0.00667579091999575,0.002156467482379567,-0.04448738007289939,0.0003679335964361885,0.04651558215610354,9.7349631498118,0.01045505331154425,0.003746592117034346,-0.006849564224701655,2.1658150062762873,-0.5670648128967667,-1.233756009738743
4030,2.958,0.9989850560363187,0.006669474867374201,0.002161760792178383,-0.04449385026477673,0.027038301466504395,0.04941379700063756,9.746410449028787,0.008584082625641762,0.0013981061691661718,-0.0101024355278559,2.1585350392505376,-0.5751790381368336,-1.2398361388739123
4031,2.967,0.9989847357062681,0.006653481263415375,0.002138354157611133,-0.04450456666963576,0.004551364853506042,0.01928236761910357,9.730336066834385,0.006531984541835227,-0.005467992322993678,-0.011161770722427706,2.1651358202535667,-0.5717728129828661,-1.2410410176591626
4032,2.975,0.9989845283084565,0.006657694251081001,0.0021531355159142064,-0.04450787924671983,0.03573299943779203,-0.0064946974946897525,9.737166393705728,0.010955509373149121,0.0038879049586976453,-0.00939282347730604,2.1638636164045613,-0.5685319085347806,-1.2340005032555494
4033,2.983,0.9989842634171724,0.006651758172539852,0.002148798194866405,-0.04451492136780419,-0.006362248991070905,0.014898488705142968,9.75690161420206,0.0087439090000192,-0.0007909314961288342,-0.010277263588643462,2.1631879318201332,-0.5742210629252645,-1.2417644859836836
4034,2.992,0.9989842482477532,0.006650090739143093,0.002144999857268627,-0.04451569410494712,0.01633780487593221,0.04640721587161266,9.772964132907687,0.009759258219563825,-0.0007107107342459733,-0.008738278326683373,2.1627340117030256,-0.5679177330437739,-1.2464666582629154
4035,3.000,0.9989845123818126,0.006652312064667233,0.002150132310285636,-0.04450918665304094,0.027148099239966528,0.0531275064045619,9.74639060906265,0.01061435791649639,0.0015572214256972087,-0.007025067462254219,2.1621633635112274,-0.571961312781564,-1.2352011616999916
4036,3.008,0.9989840833806164,0.006673541184079748,0.002157204409800261,-0.04451529478042799,0.01520288022339733,0.029300578041850787,9.703757030018505,0.015163331895644476,0.0022238100259722978,-0.01003596081230291,2.165607908382235,-0.5734608591495196,-1.2388241154651276
4037,3.017,0.9989843182058336,0.006665178536210307,0.0021615325153012243,-0.04451106773704453,0.026845543831999653,0.05512225163782414,9.746380368283518,0.008082634233330596,0.0012527745184662334,-0.0075607435490795275,2.1583533833503146,-0.5750160353402327,-1.2483845498585113
4038,3.025,0.9989840552912104,0.0066703994764476925,0.0021394566484054696,-0.04451725249836131,0.022738359617244783,0.08454259091712935,9.750978435353133,0.011596706358521683,-0.004865916645334697,-0.010089812347663586,2.1678568858559384,-0.5732839488972294,-1.2458899409804582
4039,3.033,0.9989842607871104,0.006651452106433866,0.0021429811359896063,-0.044515306540086785,0.011108043991804973,0.06035203329479883,9.708350174888828,0.005550737415118774,0.0009484713612224393,-0.008096505320418678,2.1633359682303697,-0.5701898218807742,-1.2286171395314607
4040,3.042,0.998984048481049,0.006666523930660703,0.002149912955069225,-0.04451748210963439,0.02042726767869097,0.022902168324896978,9.768340080573104,0.013646574410174752,0.001999559839327122,-0.009033178471010164,2.1590021124392376,-0.571977538146535,-1.2369332243311961
4041,3.050,0.9989837835254227,0.006660587387068454,0.0021455549246609668,-0.04452452608345452,-0.010760476947926591,0.05027536578657392,9.761484876224921,0.008744026578017079,-0.0007959483326852824,-0.010277695391624708,2.162950427824601,-0.5815542232060525,-1.2426732276452204
4042,3.058,0.9989842770669759,0.006656997035781478,0.0021409502452597604,-0.04451421004000149,0.016183658140922787,0.05316866074485488,9.772929943173912,0.009258420576627001,-0.00085524138954179,-0.006195916045663347,2.165615267085028,-0.5702964457077258,-1.2398307398748925
4043,3.067,0.9989845410326756,0.006659215440553724,0.0021460695143461716,-0.04450770734480954,0.020412125145089444,0.025359215076990235,9.76833404046134,0.01061378501086968,0.0015540480774099462,-0.007026254279981686,2.159713048624064,-0.5726821120995224,-1.2339914395430973
4044,3.075,0.9989845455416269,0.0066573118799446215,0.0021514333619118134,-0.04450763195241348,0.046238616822725516,0.009315403632040767,9.710595304112047,0.009598432176655375,0.001471788939178899,-0.00856540819253829,2.15877393813901,-0.5734631770588012,-1.2391182098218965
4045,3.083,0.9989843390891094,0.0066725418040990934,0.00214866860089825,-0.044510118667689884,0.01596924725063488,0.05575713046486562,9.77291587371764,0.013807240102408207,-0.00019072906429049458,-0.009207286926055899,2.16245022652496,-0.5734817203330537,-1.241044424293444
4046,3.092,0.9989845545715874,0.006653689309978678,0.0021521824277337238,-0.04450793476192562,0.015009157690919052,0.0374993180454604,9.70372910609458,0.005550536300845175,0.0009449977898658502,-0.008097149976634811,2.160482944628076,-0.5724866585729796,-1.2391149883967405
4047,3.100,0.9989842928996937,0.006658872219926765,0.002130334869017005,-0.04451408354447879,-0.00652147810769152,0.026450408561032677,9.756877033311616,0.01159804199289122,-0.004870919100272754,-0.0100889557847654,2.1621509051479415,-0.5714568281736823,-1.233496935704799
4048,3.108,0.9989848056280295,0.006654576835741281,0.0021443565150455076,-0.04450254449581823,0.04729081551606615,0.031641861149545966,9.77977028055463,0.008935911861438465,0.003518109091634823,-0.005850179590519724,2.164805991110437,-0.572149812580262,-1.229320257921574
4049,3.117,0.9989847985900631,0.006652851066374191,0.0021401532887457306,-0.044503162837723466,-0.0065837696282970756,0.028044397695518915,9.756872538289034,0.00975942149910458,-0.0007183264563986933,-0.00873905686480843,2.153900806071549,-0.5644419706113596,-1.240460279422468
4050,3.125,0.9989845883221573,0.006657187020079566,0.0021461473222337806,-0.04450694560921413,0.031095925744278302,0.036943856313283494,9.741741056923779,0.011114189450372838,0.0016904991361393607,-0.009570190660170109,2.1578654370846975,-0.5703775725325804,-1.2484321583337354
4051,3.133,0.9989848391686078,0.00665967226210667,0.0021421153566651774,-0.044501137271211216,-0.00010431176356219894,0.06426771732526444,9.734862146361227,0.0107747689874858,-0.000636783085204845,-0.007200083873750963,2.1649039411857847,-0.5752068530482124,-1.2427192141739565
4052,3.142,0.9989846436802583,0.006674528691586269,0.002148014361526748,-0.044503015539127395,0.020151098879299383,0.032964231303551174,9.768311881024568,0.013645536071100368,0.0019933939051011394,-0.009035393625151687,2.161153021228858,-0.570452494776482,-1.2305838686626986
4053,3.150,0.9989848782349876,0.006666160973201943,0.00215231319666174,-0.0444987966535165,-0.011141391088955475,0.060277568340641165,9.761427808865893,0.008081717371074095,0.0012457181514135295,-0.007562734740725095,2.165330222566862,-0.568290096822607,-1.234236236074695
4054,3.158,0.9989846114997961,0.00667145073147579,0.0021313126424418183,-0.04450500239478261,0.020162155667778906,0.03465245467042051,9.768306014314417,0.011599136297219204,-0.0048751974662452026,-0.010088102253474738,2.1588272560863397,-0.5767063994161681,-1.2464117707630322
4055,3.167,0.9989853486345275,0.006671774657219221,0.0021268237941142456,-0.0444886194101828,0.020390047668144715,0.035543962387571314,9.768302336554878,0.010273878781642851,-0.0007768664826439534,-0.004657391111639156,2.1558642307039344,-0.569582600117612,-1.2418620657171209
4056,3.175,0.9989850889608499,0.006654932699018966,0.0021302216047435736,-0.04449680955495042,0.008622256126778591,0.011245586378156055,9.72571382726413,0.006050793461750355,0.0010781911463229976,-0.010641322883501359,2.1653463856977004,-0.5668461802774085,-1.236447251045794
4057,3.183,0.9989850818086498,0.006653206126379134,0.0021260014099918774,-0.044497430150636244,0.02464589738548476,0.008234090293493049,9.76373966349973,0.009759416897377665,-0.0007223857489127292,-0.008739582769872734,2.1660678431415104,-0.5702500875220946,-1.2349447085281877
4058,3.192,0.9989850804900513,0.006662032026737276,0.0021232948419318415,-0.04449626845675393,0.020401863879973673,0.03775374577519052,9.768294022463552,0.012290794503089765,-0.0004184093899898289,-0.008204717138322331,2.153889471495523,-0.5734608591495196,-1.238909780479207
4059,3.200,0.9989845997636155,0.006662193482551929,0.0021286559011678974,-0.044506779676641614,0.008603239029521245,0.013689116683624599,9.725710713635161,0.010098081554943676,0.0016019431778613875,-0.011110875232895102,2.1639045607091303,-0.5700499981769889,-1.2396014274382392
4060,3.208,0.9989846203862603,0.006660220633189944,0.002133567863275375,-0.044506376857811746,0.020222628991805856,0.03946993010060829,9.768287609868896,0.009597265144846837,0.0014638541397883353,-0.00856783561634591,2.1689653633189816,-0.5697201059121159,-1.2305337121953601
4061,3.217,0.9989843973864745,0.006664592707340678,0.0021391036457186637,-0.044510461894042584,0.02438826583154724,0.011693368936518792,9.763736781154119,0.011113317640684371,0.001684358626967712,-0.009572057153620125,2.1617124365092604,-0.5739630258481198,-1.2403127733664576
4062,3.225,0.998984121647413,0.006669944421486193,0.0021179105113786597,-0.044516861893299356,0.03535446697806584,0.018468554805069783,9.737152427374927,0.011600347526060959,-0.004879754341926173,-0.01008738418342539,2.1597504406580263,-0.5739514363017121,-1.2391064353760244
4063,3.233,0.9989838694378439,0.006663732782620419,0.002122635926557727,-0.044523226355674635,0.02035719676551053,0.042063661711974204,9.76827650518863,0.008581673460141876,0.0013783813493978728,-0.010107417222733128,2.1690060365178696,-0.5751442694976103,-1.2360975508204606
4064,3.242,0.9989843986126433,0.006670125877864905,0.00213746963872262,-0.04450968403452182,0.04701969676371964,0.04510636925421829,9.779718756817426,0.01146495686920714,0.003817823534438942,-0.005318862083033814,2.1638527732075814,-0.5704710380507345,-1.2325172218854192
4065,3.250,0.9989846364628685,0.006672884349189298,0.00212427482408876,-0.044504563609650875,0.02663193241558572,0.07825956800122467,9.746222634565168,0.010937437152600253,-0.0028303201113273673,-0.007372344423162737,2.1665489051392766,-0.5712173343707899,-1.23395537536898
4066,3.258,0.9989846288601048,0.006671046213293402,0.002130047680092647,-0.04450473391157235,-0.006723168667198117,0.04240012183495578,9.756820618961571,0.009596850752604406,0.0014607308519940965,-0.00856874725186672,2.1631399507507685,-0.5712289239171979,-1.2352009764908662
4067,3.267,0.9989844056949683,0.006675415836762994,0.0021355696532976516,-0.0445088232144332,0.02654873437870939,0.07993824091636634,9.74620923766478,0.011112841511439632,0.0016808835809585456,-0.009573100767428592,2.156320291254605,-0.570761525857821,-1.237452691330781
4068,3.275,0.9989841934868707,0.006679849368903852,0.002141369689539574,-0.04451264215533443,0.015570233176096227,0.07500315497601007,9.772787760323727,0.011112815513317616,0.0016802781781749805,-0.009573215715309037,2.159560200603121,-0.5688942515295955,-1.246480587814831
4069,3.283,0.9989844278697191,0.006671476655937972,0.002145640150545895,-0.04450843180099667,-0.0028026702963259457,0.016302579951595158,9.752281563553108,0.008080787411109677,0.001238668882109023,-0.007564747226068308,2.153175508307347,-0.5649395014913967,-1.2414374901853729
4070,3.292,0.9989842034098919,0.006675721792575945,0.0021414181457596326,-0.04451303634192484,0.030561434202558482,0.0537904013267114,9.74166429401079,0.011275741055378118,-0.0005086389321694577,-0.009744406123861899,2.165093040509326,-0.5709847942957424,-1.235189016835869
4071,3.300,0.9989839510394575,0.006669508141082591,0.002146123256454384,-0.04451940455261795,-0.0028701283687424636,0.017895571099665372,9.752278751121569,0.008581450700714225,0.001373453317194765,-0.01010834435676153,2.170744138936002,-0.5663926896737211,-1.240074470087378
4072,3.308,0.9989839352329208,0.006667155900093445,0.0021607637217167792,-0.0445194033977432,0.03895425844024608,-0.0019110884922933545,9.732615357307028,0.009433481104324971,0.003645752340894542,-0.00839858278651452,2.1582451831216645,-0.5653535876372974,-1.2335834368932252
4073,3.317,0.9989836993198176,0.006671800583776481,0.002157132791396322,-0.04452417712190435,0.007630446498714249,0.025301756115717836,9.72568824828565,0.011275912837180553,-0.0005101764973184884,-0.009744450328281397,2.1638739512783887,-0.5739166676624887,-1.2354142492051994
4074,3.325,0.9989834373949082,0.006665920354002116,0.0021532049158051398,-0.04453112422877376,-0.0031521046974891938,0.020281909126988348,9.752273993172654,0.008744738164495816,-0.0008161781898282882,-0.010279256774113633,2.1678338554013545,-0.5708125198620153,-1.2427395191727248
4075,3.333,0.9989831847264264,0.006659705655689263,0.0021579011172878537,-0.04453749450961929,0.023697602106039807,0.023243759598224452,9.763717815323174,0.00858130099166401,0.0013712264932002674,-0.010108810243363171,2.161405908926396,-0.5729053805374438,-1.2317795209941913
4076,3.342,0.9989831675882432,0.006658090527267665,0.0021540796459196803,-0.04453830538727891,0.018462592374943958,0.03338994396906652,9.699093364561437,0.009759961634894081,-0.0007318060647144634,-0.008740307551174427,2.1650661866784526,-0.5721706737637959,-1.2315155811207839
4077,3.350,0.9989829440066595,0.006662456862640531,0.00215958040304677,-0.044542400752810705,0.03879414238757266,0.002048937651301621,9.732615969484158,0.01111228507763513,0.001675762653443208,-0.009574451610401824,2.1599574877197614,-0.5682877789133253,-1.2340313761075918
4078,3.358,0.998982748560804,0.006677553109944264,0.002166624288079925,-0.044544181455723086,0.019144783235123055,0.054473689813468874,9.768217637146481,0.01364334584618946,0.0019808024028171653,-0.00903995449626201,2.1678499338116684,-0.570589251424094,-1.2449389449070771
4079,3.367,0.9989829536775188,0.006658596574736345,0.0021700683772657658,-0.04454225136467863,0.05672822690929529,0.06335129931025861,9.753068942903683,0.005549333618952563,0.0009286724485487951,-0.008100384963813219,2.1585084226371354,-0.5729471029045118,-1.2361951530217177
4080,3.375,0.9989830115462908,0.006677754781235626,0.0021765882193209114,-0.04453776708266495,0.0028571127506942903,0.05963033401615125,9.730173104260595,0.01465840095262163,0.002065677965372811,-0.007501104765849001,2.1668215082382623,-0.5724750690265719,-1.2378479710213346
4081,3.383,0.99898323351536,0.006669658701156074,0.0021716978388684163,-0.044534240046317605,0.02968068894440416,0.06283476263559461,9.741612876865933,0.008244287348591988,-0.0009544368576217741,-0.007735894340017731,2.1646442369968164,-0.5681062328424719,-1.2405911085478774
4082,3.392,0.9989829492763381,0.006663683894972675,0.002167529691574137,-0.04454171288953746,-0.00795627596697364,0.05542762048215126,9.756754379861219,0.008745050696236953,-0.0008209946564175683,-0.010279535834052425,2.165356330857111,-0.5778459206985905,-1.2378076865064092
4083,3.400,0.9989832124598387,0.00666588917570912,0.0021725867668413263,-0.04453523337380522,0.02971427014748927,0.0643144095794481,9.74160311949524,0.010611216353470895,0.0015387405448844772,-0.007031693817431314,2.1624023640643304,-0.5687806739747993,-1.2344971397320719
4084,3.408,0.9989827169173651,0.006666545704445835,0.0021692082203227966,-0.04454641404723213,-0.014516891686698676,0.022621836143721062,9.778845664138334,0.01026098465004466,-0.0006024380191468937,-0.011284173610422187,2.1619260628449553,-0.5763649176048874,-1.2361377175297203
4085,3.417,0.998983401057766,0.006656851249743532,0.002145602311362982,-0.04453366292165444,0.027779078492672367,0.002848841257344103,9.759206014543972,0.008072047295621868,-0.005465362508004261,-0.005531712207269064,2.1611814732819314,-0.5719543590537194,-1.234475931155497
4086,3.425,0.9989832007437187,0.006661221560574061,0.0021606426985218835,-0.04453677561618392,-0.003377665115288468,0.029956739181059205,9.752248999410613,0.010947288914148886,0.0038588271468205887,-0.009406427032487666,2.1656299844906113,-0.563967618824138,-1.2418439886944224
4087,3.433,0.9989834638471248,0.006663425363575627,0.002165693731041421,-0.044530298596442544,-0.0035990107844972833,0.030832502115975977,9.752246190202609,0.010610908517340758,0.0015372194079668966,-0.007032325612887518,2.161963590431758,-0.5756812048354338,-1.2412712561414423
4088,3.442,0.9989836603633363,0.006655467245215448,0.002151618710569596,-0.04452776234825982,0.011647348182909762,0.008794164419001875,9.721167197027293,0.008408806655922463,-0.0031454258040964,-0.007905551894748399,2.153652831649349,-0.5683434087360827,-1.23993673235556
4089,3.450,0.998983407400474,0.006649247740139437,0.0021562809881321586,-0.04453414078356043,0.034234512758503706,0.040404005158138044,9.73709011403498,0.008580480502681896,0.001362947235984343,-0.010110757311284474,2.1636510460797047,-0.5766299084098768,-1.2383200147548208
4090,3.458,0.9989836749576969,0.006651803703357085,0.0021521034625210603,-0.044527958926882154,0.03420272182597556,0.04119175822811032,9.737086926263446,0.010775282174462431,-0.0006518112958655154,-0.007201972125879827,2.1697760850188264,-0.5727516493779691,-1.241241960300248
4091,3.467,0.9989836799855984,0.006649794697181765,0.002156954692421531,-0.04452791146429485,0.023339636229293012,0.036212666583484536,9.763679190777134,0.00959548893224212,0.001448786596195221,-0.00857198293200365,2.160199159450009,-0.5780506458622595,-1.2336927544272691
4092,3.475,0.9989832378555572,0.006660542323670033,0.002172588242679869,-0.04453546362069918,0.02311202134028051,0.03711186190905787,9.763676357989763,0.012462320105902371,0.004074953994171069,-0.010412499493001307,2.1628636428842287,-0.5719195904144959,-1.2308015918626054
4093,3.483,0.9989829896828647,0.00666546912890686,0.002159771774977022,-0.04454091637424191,0.02305327213894995,0.038086243508755724,9.7636727436542,0.011441000193423489,-0.0027091441780456083,-0.009914643774991657,2.1656740574631623,-0.5718377144427496,-1.2478728950431413
4094,3.492,0.9989837022630109,0.0066549688047240286,0.0021637688547587737,-0.044526308037378476,0.03394378537218992,0.044664502899633925,9.73707252034634,0.007578886407987681,0.0010961146203553984,-0.005023800060596227,2.1599943883746766,-0.5766368621377214,-1.2390791543673885
4095,3.500,0.9989834662280309,0.006659612212012912,0.0021600885297317633,-0.04453108785734892,0.03828583168684664,0.016808368535248586,9.7326036838835,0.01127609060889451,-0.0005221728237249602,-0.009745957997381557,2.159084017992482,-0.5747695878094959,-1.248137390543925
4096,3.508,0.998984005425991,0.006666135906014202,0.0021648472444759986,-0.04451778264395704,0.023043477507018184,0.040563071292826484,9.763662790963352,0.011625405340558708,0.0016212747365343574,-0.005494550191179854,2.161694624323905,-0.5734515875123933,-1.237876178075597
4097,3.517,0.9989844850074913,0.0066622512258904115,0.002160123751388065,-0.04450783064023277,0.029466271133549077,0.07583534141107383,9.74152099740763,0.009259671788610119,-0.000873881506125648,-0.006197395167456085,2.1588367043903793,-0.5691499706974587,-1.247704239523641
4098,3.525,0.9989844937111252,0.006660124433091627,0.002164626428813072,-0.044507734829880435,-0.003884328907539376,0.039859256997731365,9.752213363671471,0.009595170394187658,0.0014450965980836738,-0.008572884448412246,2.1646316430806904,-0.5695547852062334,-1.2388683397738902
4099,3.533,0.9989844865690405,0.006658398152969637,0.002160319337450917,-0.044508362683742114,0.018578446343318088,0.07159501842001405,9.76810824339303,0.009760396362419505,-0.0007434607463732618,-0.008741336570083623,2.154363920331121,-0.5668508160959717,-1.2370158081936051
4100,3.542,0.9989847255732478,0.006661025242571531,0.0021471662021994016,-0.044503241357918756,-0.010220791426330039,0.007069021252823345,9.774353430184796,0.010940759579532913,-0.0028441302874634747,-0.007370673687894423,2.16178229035774,-0.5703914799882697,-1.2498683419203778
4101,3.550,0.9989844846727094,0.006654516010912564,0.002160938454276766,-0.044508955782614594,-0.0038041709061091347,0.04227260172937266,9.752203232529046,0.00841442672007112,0.0035436969530441317,-0.009944253766452358,2.1617265439270614,-0.5764228653369262,-1.2422425796814112
4102,3.558,0.9989846839787931,0.006646907192792843,0.0021371778472714363,-0.04450676658004681,0.0006468669114158956,0.014338930635387066,9.747751418181732,0.008575668158885642,-0.005339905062157617,-0.008072815414285808,2.1612579572366863,-0.5757159734746572,-1.244938456683161
4103,3.567,0.9989844064237119,0.006641254867651968,0.0021235224368788145,-0.04451449324105142,-0.009837433877625009,0.009259116812930233,9.77435199313607,0.008910699434896434,-0.003021736483547279,-0.010448843428451057,2.164603496021508,-0.5636585877427991,-1.2350179985333798
4104,3.575,0.9989846714890447,0.006643064778798541,0.0021378133782533047,-0.044507590074394615,0.03864748297727859,0.02396428580839688,9.732587265275832,0.0104439490789427,0.003719015722865709,-0.006867064346481382,2.1567850376245867,-0.5753698558448133,-1.2342314825743301
4105,3.583,0.9989849632633271,0.006655842003386921,0.0021436510657794248,-0.04449885055935327,0.027598064211095414,0.0191361088063207,9.759188184906423,0.013140370113818228,0.001837422296876817,-0.006501014766676485,2.1653655758318906,-0.5732190474373459,-1.2390723410988262
4106,3.592,0.9989847386222451,0.006660738986211763,0.002140259597690575,-0.044503323975371316,0.03836599086114752,0.02591557289006644,9.732583378914814,0.011276001440326002,-0.0005284768898996337,-0.009746889072814555,2.1605024567002618,-0.5742210629252645,-1.2417841175494102
4107,3.600,0.9989847313067524,0.006659011657146038,0.0021359353887096424,-0.044503954428139314,0.011547312419935375,0.024422771590923962,9.721140615522728,0.009760331274939511,-0.0007475352977319335,-0.00874195540619335,2.1565316924362117,-0.579508469863147,-1.2329732483644054
4108,3.608,0.9989847223430388,0.006647070416060978,0.0021308885042953785,-0.044506182652174965,0.023272171130466344,0.050305460868170074,9.76361691076942,0.007229620785488906,-0.0010552187143894436,-0.009275973889261059,2.1668396254175084,-0.5685921741761012,-1.2403262875644832
