packet_counter,timestamp_s,q_w,q_x,q_y,q_z,acc_x,acc_y,acc_z,gyr_x,gyr_y,gyr_z,mag_x,mag_y,mag_z
25584,0.000,0.9999970863878606,0.000605155779591916,-0.0007190953052526369,0.00222348919835561,0.029741350411619506,-0.338566400884497,9.794292743550617,-0.0017625098433908986,0.0018989390292466844,-0.00020651011785836434,0.7153563649840369,0.43028310499394046,-0.8717693422539038
25585,0.008,0.999997079305049,0.0006155354849200203,-0.0007258450819511901,0.0022216314627247578,0.05757855910527101,-0.3542380760023395,9.737143208616306,0.005445107973828792,-0.002062055851274445,0.00020082558133300183,0.72439017503599,0.43369894635609674,-0.8718291152185176
25586,0.017,0.9999970783671728,0.0006194774304647089,-0.0007171177742539345,0.002223791116596832,0.02907780856786203,-0.3446566867534202,9.765779048133368,0.003782676037379081,0.0018625860597053282,0.001605727881904692,0.7227419901442498,0.43338028567608855,-0.8808679939224918
25587,0.025,0.9999970984549144,0.0006155257105447649,-0.0007003949403929197,0.0022211836439308607,0.06054043684115449,-0.3185903598626797,9.759046932694352,0.0019989095280439585,0.003553171243669619,-0.000421683160351713,0.7175884915664824,0.42496986903286316,-0.8769413251604783
25588,0.033,0.9999970897340931,0.0006191475003988696,-0.0006992057383417948,0.0022244754557255676,0.025529520485165057,-0.3792296723937277,9.743917058469941,0.003703860206054579,4.5234912646192656e-05,0.0018152099850123164,0.71708806934582,0.42918657600768406,-0.8751391547816357
25589,0.042,0.9999970954660249,0.0006150427826096228,-0.0006968705183633185,0.0022237700803657686,0.05970557271497721,-0.3247523278505912,9.730531426003534,0.0018625581158240236,0.00012681828691268258,0.001818019538593114,0.719503956901377,0.432740216582817,-0.8713395640276611
25590,0.050,0.9999970842064193,0.00061067188177532,-0.0007028964832860309,0.002228137124775043,0.026249384344240168,-0.37223707284464413,9.77246276008043,0.0017837303135934644,-0.0016905461741580476,0.0020274988891227806,0.7114958176734794,0.43541831953400245,-0.8785726480140128
25591,0.058,0.9999970825397987,0.0006213240719760393,-0.0007023819177436067,0.0022261015096731044,0.027000517888523378,-0.36531951102645993,9.801004971284295,0.0055239365408448595,-0.00024484073281401094,-8.447785916726269e-06,0.72070210554741,0.4348127002439751,-0.8679844820529206
25592,0.067,0.9999971057943111,0.0006248860330770778,-0.000703454940981278,0.002214288055793519,0.060542463247038485,-0.31731548340447313,9.759088455843852,0.003661364278031642,-0.0003716987974840707,-0.0018264478363498582,0.7206859926653401,0.4292784729205891,-0.8655905518908007
25593,0.075,0.9999970888461261,0.000620432225537752,-0.0006916799781682658,0.002226868189819633,0.05796389083546926,-0.34550792736909103,9.765752072564275,0.0019626903300217265,0.0021527527848666174,0.0034292554413824887,0.7173244763743492,0.4243412524364193,-0.8739893338921294
25594,0.083,0.9999970936794726,0.0006160310232091201,-0.0006988367340543459,0.0022236828925311855,0.0280911314569361,-0.34938723617472767,9.737315969095928,0.0017624614646354303,-0.0018989782044181256,0.00020677885439419988,0.7185477215002252,0.4282364586852154,-0.8743628970969818
25595,0.092,0.999997123326967,0.0006122140883198673,-0.0006899449246995244,0.0022141607219561175,0.028773166179637003,-0.342614966307398,9.765851793426558,0.0019201795847160951,0.0017357220770050086,-0.00021240061829894282,0.7217288771176817,0.42477755506900394,-0.8754408795521668
25596,0.100,0.999997117124621,0.0006001701936262212,-0.0006956467701081057,0.002218471040442906,0.05794720343857276,-0.3451320241901154,9.765765463452821,-5.759757148904926e-05,-0.0016088071280477869,0.002030416425929783,0.7270495212012115,0.42748442773140055,-0.8679273741715905
25597,0.108,0.9999971373146708,0.0006039516630937117,-0.0006864911303418207,0.0022111840223555403,0.028760974830100344,-0.3423888948250743,9.765859758262991,0.0037615184672543803,0.0016540635204976301,-0.0002152201548367737,0.7212211714490349,0.4329411429974873,-0.8725565895538331
25598,0.117,0.9999971236133574,0.0006152463107914264,-0.0006856247139534863,0.002214532849513121,0.026187737830606964,-0.370430402939052,9.772531575723066,0.005545245477065423,-3.635324835456174e-05,0.0018124323594503676,0.7251019657720508,0.4230581818910983,-0.8687614317839955
25599,0.125,0.9999971799272778,0.0005954491585790746,-0.0006853322301754889,0.002194515328285776,0.0268810274825387,-0.3636560656174593,9.801067160345436,-0.0018838573629116832,-0.00033556759451134623,-0.0036388191288318685,0.7278220924475447,0.4304495816053666,-0.8738899992925995
25600,0.133,0.9999971395480669,0.0005991313301047569,-0.0006818783233536983,0.002212911947244078,0.08706637003754944,-0.3469717078802181,9.765703799610497,0.003746454901718388,0.0004625376717908152,0.005456833517920519,0.7180278249494965,0.4335324697446707,-0.8696673780341013
25601,0.142,0.9999971900301388,0.0006020739292242674,-0.0006837646068103147,0.0021885851076673445,0.02871615659848363,-0.3414858998416122,9.765891507082491,0.0036188657687885196,-0.0007892137596007457,-0.005467984371698449,0.7256513254211775,0.43104374839856635,-0.8778343551882282
25602,0.150,0.9999971581533525,0.0006054054581013254,-0.0006889800842550388,0.0022005626312742274,0.027462918083232785,-0.3544440962042266,9.70884253125959,0.0036463492196056094,-0.0015632841869188524,0.003845734231155686,0.7187501064178503,0.42552390593078593,-0.8681583282661439
25603,0.158,0.9999971648914812,0.0006014348608255674,-0.0006786045821431905,0.0022018131005946268,0.0561428802066375,-0.36534848390061525,9.801011641177825,0.0019415072259251268,0.001944354530309796,0.0016082531286868483,0.7146272440649479,0.4302658800923184,-0.8722622381558861
25604,0.167,0.9999971488191925,0.000604736233238863,-0.0006849520302212002,0.0022062384935469604,0.02810293812456648,-0.34736558921993493,9.737388264410859,0.0036250532186448696,-0.0017719733791033568,0.002024986684451085,0.7222015949777644,0.428523509607996,-0.8731269455540444
25605,0.175,0.9999971379387279,0.0006156916588262945,-0.0006830085359629014,0.0022087411515668734,0.05687446566410535,-0.3581190204955332,9.829562622913969,0.005545319178575765,-3.633413166112336e-05,0.0018124096972655245,0.7219819575802725,0.4347466406835033,-0.8767682714004355
25606,0.183,0.9999971083228439,0.000603357039644122,-0.000695114143232796,0.0022217386349200983,0.028970959289328108,-0.3401443348151965,9.765937572909012,-0.00011526133282262098,-0.003217112141504978,0.004061237941513851,0.7234603113823526,0.4363856617580932,-0.8787705630935857
25607,0.192,0.9999971434840242,0.0005986141869939912,-0.0006958827365648567,0.002206905540436295,0.05511910801778503,-0.37771982078674415,9.74398537967199,0.0017987018592677394,-0.0004992559151627314,-0.003644396306825224,0.724161843252969,0.4240886513168827,-0.8741786950154362
25608,0.200,0.9999971348679407,0.0006022361999559892,-0.0006946919057400025,0.0022101969653762154,0.029142653826253886,-0.33985174738225327,9.765947248516653,0.003704017709850852,4.537078330966967e-05,0.0018151501762967116,0.7209677629226194,0.435432704389608,-0.8711804564635174
25609,0.208,0.9999971229028337,0.0005981777176901242,-0.0006831362077951394,0.002220291511244908,0.029722800136145106,-0.33299025098592644,9.794483965542476,0.001962936773617027,0.0021532063106215146,0.0034288837318035277,0.7185157084878029,0.4249842538884688,-0.8696066458139916
25610,0.217,0.9999971411960727,0.0006094119472886207,-0.0006845345877199108,0.0022085355236838773,0.0873373884381068,-0.34450983335924174,9.765788538826367,0.00550274435064591,-0.0004540495935718686,-0.0018291781165458653,0.726155843541965,0.43022565788427963,-0.8802450634318468
25611,0.225,0.9999971419778418,0.000605242675786359,-0.0006817991380621407,0.0022101736102529477,0.02580318500138783,-0.3740695142848501,9.74411580040445,0.001862670295797333,0.00012713109978058917,0.0018179813849414496,0.718341453434193,0.43536664482913623,-0.8799905371042933
25612,0.233,0.9999971542335628,0.0006011616017049014,-0.0006814170217666946,0.002205855921734595,0.05884172247067909,-0.3348302907905823,9.79442103184241,0.001841357121618708,-8.174382805207911e-05,-2.7960084636971427e-06,0.7216677494284527,0.43047257891178325,-0.8663589897729006
25613,0.242,0.9999971701537465,0.0005968242754422657,-0.0006723310899568845,0.0022026021405252903,0.05558995483362835,-0.36972841742641543,9.77256688087454,0.001920324705182771,0.0017355596009155487,-0.00021275001923502256,0.7202459834182273,0.431712587203049,-0.8727640842407248
25614,0.250,0.9999971466760413,0.0005998045553380567,-0.0006862155457172505,0.0022081626970633286,0.058170326918912246,-0.3410889545518214,9.765906185818928,0.0035460962045025302,-0.003589185528020947,0.0022351524112773466,0.7202861296428699,0.42075316205804225,-0.8787287066868616
25615,0.258,0.9999971816284452,0.0005963770224514193,-0.0006697298255914026,0.0021983019753516594,0.027156640445045423,-0.36004894926059144,9.801199573696243,0.001999320616263565,0.0035528364584644216,-0.00042279975941178884,0.720755312154819,0.4303806819988783,-0.8758895173996185
25616,0.267,0.9999971693331196,0.0005926776517483231,-0.0006595431875753763,0.002207954196452495,0.028074853114707456,-0.3447423206815228,9.737481572290653,0.001962961946044531,0.002153429846222807,0.0034287559727433988,0.7290607739700747,0.4301108559777198,-0.8765569855724481
25617,0.275,0.9999971866047009,0.0005799862510421918,-0.0006737151321129092,0.0021992058913895014,0.0579986619827988,-0.34063114987041404,9.765923185326313,-0.0001793118650876989,-0.003843546751702174,-0.001400721508495327,0.7190738778345663,0.42852634965401254,-0.8799884474684947
25618,0.283,0.999997173204024,0.0005912813277797293,-0.0006728476160772435,0.0022025545256493836,0.060664827505913024,-0.31199609057355243,9.759259204589943,0.0055454254061110125,-3.6358908523562656e-05,0.0018124050490986338,0.7193230554123002,0.4289884896390303,-0.8807359782008781
25619,0.292,0.9999971694597944,0.0005948970364598171,-0.0006709503249930861,0.002203859246325977,0.026459789188514375,-0.36585630839006467,9.772703152725802,0.0037040685078535396,4.542692305793931e-05,0.001815195600961881,0.7165968237381994,0.42358344907780987,-0.8747003761691569
25620,0.300,0.9999971816415673,0.0005908159976236799,-0.000670568224252935,0.0021995416878502535,0.057471984683254644,-0.3464507107313766,9.737424024316784,0.0018413726332873637,-8.180074232932909e-05,-2.7826663079053693e-06,0.7126894258008204,0.42529998220969906,-0.8745429701103099
25621,0.308,0.9999971963717889,0.0006021678632318186,-0.0006701307636894161,0.0021898783496839256,0.02714926132810101,-0.3586913785456038,9.801249371014391,0.005524127695621023,-0.00024540279048946407,-8.344240630980616e-06,0.7183049776062402,0.43409218673462624,-0.8745712344404336
25622,0.317,0.9999972035620112,0.0006057598914063244,-0.0006700728777057548,0.002185617864776635,0.05817935148106693,-0.3391378251374808,9.765974082727281,0.0036827599613431226,-0.00016360232988966376,-5.559695162124554e-06,0.7270888756283308,0.4270337402432102,-0.8737743573298059
25623,0.325,0.9999971833535534,0.0006013590229010676,-0.0006661176943046423,0.002197257268389955,0.025798424440763856,-0.37137074201316894,9.744219042641385,0.001884051116999717,0.00033642229711029287,0.0036387292962494367,0.7249042564216738,0.43160923779331656,-0.8756606610369523
25624,0.333,0.9999971881858998,0.0005969568195264689,-0.0006732733281453565,0.002194075175592674,0.05822534541179087,-0.3387647381971077,9.765986757279771,0.001762336282471016,-0.0018991018645504716,0.0002074182556112246,0.7224441649716123,0.4219358155524089,-0.8728927714433898
25625,0.342,0.9999972122462271,0.0005930997244488856,-0.0006639969433227236,0.0021869706334636534,0.05823201283920491,-0.33861487904906645,9.765991914722544,0.0019204308523228229,0.0017354398661571886,-0.00021299567194608675,0.7214497924443001,0.42300650718623206,-0.8702499787249152
25626,0.350,0.9999972036774561,0.0005967223558721279,-0.000662804902472825,0.002190262395276175,0.057479599224340525,-0.3450290650433596,9.737474456906904,0.0037041125078792914,4.549441950075258e-05,0.001815203238444149,0.7268441028994147,0.42434986488723025,-0.8736812657225577
25627,0.358,0.9999972278210875,0.0006000054758674694,-0.0006699146542786008,0.002176133710423184,0.02838509129936414,-0.3421345151539521,9.737572649319828,0.0035823791076303397,-0.0021901344333200463,-0.0016160389418595174,0.7324445463720053,0.4249153542819805,-0.8714648482197321
25628,0.367,0.9999972084653327,0.0005959859511127019,-0.000667263439988191,0.002186920618315126,0.02411418905659611,-0.39209855938777716,9.779461918165158,0.0018841044144657835,0.000336586049148272,0.003638702711746713,0.7150944557086785,0.43159778529648907,-0.8691302321736771
25629,0.375,0.9999972015827437,0.0005992439249165862,-0.0006644962454679956,0.002190017840229557,0.02843414353158996,-0.34168687507935525,9.737588223847522,0.0037041465575095456,4.550341606778606e-05,0.0018151811305588093,0.7214392437452946,0.4201303178663928,-0.8686827328026163
25630,0.383,0.9999971990081359,0.0005945201782326385,-0.0006791890686887058,0.0021879725431586806,0.055928316775789376,-0.3658377469505322,9.772711371908196,0.0016832252170848787,-0.003716386305702394,0.00041786196030584965,0.7217420725490046,0.424952644131241,-0.8774013569458843
25631,0.392,0.9999972399844766,0.0005985598577451774,-0.0006714708163448669,0.0021704553598332556,0.055344253954469,-0.3722626281400681,9.744194118259204,0.0037404912796160485,0.00144423729590747,-0.0020366838865944355,0.7222032180457092,0.43535519233230874,-0.8733680887146045
25632,0.400,0.9999972314589773,0.0006021829346247913,-0.0006702780168106271,0.002173747334592645,0.028614265432232902,-0.3409462223036242,9.73761365713615,0.0037041798233151796,4.556847741409973e-05,0.0018151513193741151,0.7219218535554157,0.43090888154436796,-0.8678384699320278
25633,0.408,0.9999972317509741,0.0005970568006817459,-0.000675992047947434,0.002173257535842316,0.02936574160872906,-0.33407702832450004,9.766145829024415,0.0017623197798503013,-0.0018991240727850996,0.00020760103973469,0.7275604150390355,0.432740216582817,-0.8712853382353101
25635,0.425,0.9999972353160642,0.0005965990524746715,-0.0006744161621441435,0.0021722321790295504,0.042436686538032696,-0.3526112478245593,9.755190337932808,0.0027728071120998623,-1.8149874310685803e-05,0.0009061623093493593,0.724431886361865,0.4293272152666772,-0.8780262685694803
25636,0.433,0.9999972180881089,0.0005993272190122221,-0.0006786833847012156,0.0021780752492946403,0.029509923442843356,-0.3334071917838514,9.766168285230226,0.003625121880407717,-0.0017716500506532913,0.002025575858422644,0.7246118024168324,0.4289311348421312,-0.8684834460487802
25637,0.442,0.9999972144855029,0.0005952772067610127,-0.0006771652813442977,0.0021813100339971737,0.057600125661461846,-0.35089854361244993,9.82981880391883,0.0018628260059206751,0.00012749455187068727,0.0018179136468966053,0.7210047598296655,0.41813818630855054,-0.8766771771183148
25638,0.450,0.9999972121501218,0.0005909745548064109,-0.0006818255486574862,0.002182098756180077,0.05629779912591059,-0.3640514063899935,9.772775957613046,0.0017837073285883976,-0.0016897409508945449,0.002028404618561914,0.719995840142833,0.44102721886867136,-0.871873077453217
25639,0.458,0.9999972424033035,0.0005948578641879785,-0.0006753652818660179,0.0021691499826647794,0.029639737632763265,-0.33281163943908787,9.766188205493613,0.003740534856323192,0.001443929141856843,-0.0020368640021962863,0.7156134445284597,0.4363225345563995,-0.8736908874371676
25640,0.467,0.9999972515876279,0.0005900428038842575,-0.0006664202611168839,0.002168997629242006,0.05801455347142317,-0.34183454652483036,9.737583951346485,0.0019205413240595843,0.0017353085041904655,-0.00021333719376654797,0.7229206309315463,0.4276164545395826,-0.8711357017756374
25641,0.475,0.9999972430929482,0.0005936657621017633,-0.0006652265699732682,0.002172289362988886,0.026925842193674367,-0.3607649821093878,9.772891153432314,0.003704245867760049,4.563164823829951e-05,0.0018151340706727935,0.7227042008183628,0.440418667219866,-0.8752535416691021
25642,0.483,0.9999972500236198,0.0005889078176644193,-0.0006635034341255977,0.0021709205360879325,0.056105561895065284,-0.3631413484173042,9.772810921739847,0.001841422435138615,-8.193451288084133e-05,-2.788715085016334e-06,0.7127069298839859,0.43668993758249597,-0.8771435944100526
25643,0.492,0.9999972342207347,0.0005922088603267523,-0.0006698470160430392,0.0021753492874173256,0.029510390372271454,-0.33190466422708875,9.766219462887179,0.0036251210954687313,-0.0017715783444718798,0.0020257238412747544,0.7275817634190276,0.43262825472227356,-0.8744571190845328
25644,0.500,0.9999972389695093,0.0006031757167925794,-0.0006615643491796343,0.002172686131474103,0.05618339834046616,-0.36254385906498626,9.772832658853165,0.0056034354851056106,0.0015713680262568587,-0.00021901068793850215,0.7180350504307688,0.4293416001222828,-0.870740885397858
25645,0.508,0.9999972231240398,0.0006064766738711049,-0.0006679077264487486,0.002177114954003539,0.056188821850917565,-0.3621684930885797,9.77284654493931,0.0036251274997360717,-0.0017715287796664927,0.0020257958584974567,0.7200244910859414,0.43012808087934185,-0.8761298179036185
25646,0.517,0.9999972477907674,0.0006096954065794268,-0.0006679258201934033,0.0021648458377315086,0.027775473420914472,-0.35261213023635246,9.801468207340172,0.003661441902783717,-0.00037354107934955635,-0.0018262898750677724,0.7227121410153147,0.4323153664470598,-0.8764332360833581
25648,0.533,0.9999972479552938,0.0006019168102005212,-0.0006573496372155589,0.0021701772847440813,0.0441278046006913,-0.3318553769931239,9.766220957848743,0.0019024441457111945,0.0010362922143878617,0.001712547850336912,0.7259030726493851,0.43540109463238036,-0.8789636651546082
25649,0.542,0.9999972355094255,0.000604892118778989,-0.0006543666484737171,0.0021759787041527004,0.026249055396920278,-0.36531883175301755,9.744446607244557,0.0037043020751796603,4.571244501819514e-05,0.001815144502936361,0.7278590702394592,0.4199953586994328,-0.8793838799657091
25650,0.550,0.9999972476056387,0.0006008107465944016,-0.0006539833972406599,0.0021716614171760408,0.028762635955485758,-0.33668295604787735,9.737761556464454,0.0018414429107912605,-8.19917136507959e-05,-2.7734531674421375e-06,0.7199925360402313,0.4271198647513206,-0.8713821788763626
25651,0.558,0.99999727047361,0.0006049155067280307,-0.0006451090500842078,0.0021626273080363923,0.059240210023746076,-0.3257391660564083,9.794725193778216,0.00376208377864049,0.001653214403753597,-0.00021632734492607267,0.7244087218986598,0.42871582357185534,-0.8745846678108067
25652,0.567,0.9999972668939602,0.0006008653059952749,-0.0006435891130826413,0.002165862079702005,0.028624687482868963,-0.3362275365433409,9.737777698410593,0.0018628586417096442,0.00012774764297897166,0.0018179315761106102,0.7197847417245474,0.4347466406835034,-0.8767830602528948
25653,0.575,0.99999728826956,0.0006040170292450221,-0.0006435207808235634,0.0021551097327728048,0.05598032463164565,-0.36035635931866467,9.772914728387105,0.0036614881649728653,-0.0003737609740788675,-0.0018261976428068998,0.7263402224124628,0.42785183075749694,-0.8713652922920162
25654,0.583,0.9999972619598783,0.0005996757351788715,-0.0006484011957307176,0.0021670342981505173,0.05605275939685514,-0.3601342300985524,9.77292250099358,0.0018050870974766515,-0.0014796209247152094,0.0038494657493694452,0.7269223289048231,0.4283368757361698,-0.8853034940114264
25655,0.592,0.9999972762449324,0.0005955509948395694,-0.0006467126542803436,0.0021620787387030744,0.026929849908379464,-0.357381984308646,9.773015438691626,0.00184145315632576,-8.202031405617351e-05,-2.765817495463532e-06,0.7165962638075255,0.43506814140952804,-0.8746171859041726
25656,0.600,0.9999972640738279,0.0005918542602889992,-0.0006365181640715509,0.002171726967343276,0.0585372168001227,-0.3314225324552661,9.766236817860483,0.001963538889068356,0.00215477918325396,0.003427719645450421,0.7219493649007268,0.4290545491995022,-0.8719258975601022
25657,0.608,0.9999972581205876,0.0006022715309166386,-0.0006432406501754186,0.0021696224962826165,0.05669234571009306,-0.3528678875700002,9.801465756435729,0.005445122659189004,-0.002063323461138764,0.00020265428981942475,0.7192713559394113,0.4397642132709889,-0.8730548615032716
25658,0.617,0.9999972821555203,0.0005908392461423693,-0.000634994491580295,0.002164110106625374,0.026160753432979397,-0.3633656136606018,9.744519874433825,7.924788667526238e-05,0.0018171778488120013,-0.0002109363672900615,0.7241459431226166,0.4263706738435222,-0.8718163738945657
25659,0.625,0.9999973019748671,0.0005937760264417478,-0.0006347799938849585,0.0021541883336027483,0.05528591518315614,-0.3658187818897924,9.744438493326552,0.0036615008322558322,-0.000373957777946663,-0.0018261668213366954,0.7278384563115956,0.43011946842853077,-0.8763212184593442
25660,0.633,0.9999972934789111,0.0005973990374600161,-0.0006335846019565161,0.0021574799639490004,0.053463177119203426,-0.38726323616081876,9.779669830009151,0.003704352363804001,4.582465926609448e-05,0.0018151822562995374,0.7234294188525956,0.43092894649200647,-0.8741807846512348
25661,0.642,0.999997289291672,0.0005930188782606255,-0.0006306662601144945,0.002161480508260983,0.027466820996276526,-0.3493559782688201,9.801585676784999,0.001862892150898767,0.00012787176717989169,0.0018179277247131365,0.7200187918543206,0.4338223607134677,-0.8752830691706412
25662,0.650,0.999997315185439,0.000589582188088759,-0.0006152081722109929,0.0021548859976710695,0.05581512458170566,-0.35847112732586295,9.772985005364507,0.001999995428172387,0.003552276452221354,-0.0004247514674760358,0.7121913025122014,0.4253516569145652,-0.8730823576684802
25663,0.658,0.9999972888399468,0.0005919338114558269,-0.0006358129715065173,0.0021604788784831586,0.05772458573758907,-0.3365077113071006,9.737771213474762,0.0034665524988277724,-0.005405670857846003,0.002448303604392803,0.7258654954538984,0.42949085183208685,-0.873380729631797
25664,0.667,0.999997311488263,0.0005954943913559854,-0.0006368925627062936,0.0021486671542399515,0.029458606448249974,-0.32694408149141585,9.76638694315016,0.003661502198639064,-0.0003741293512909534,-0.001826166451131914,0.7185355306181432,0.42536888181618726,-0.8725516680324351
25665,0.675,0.9999973206915158,0.0005995702971923249,-0.0006193350618481312,0.00214838295706675,0.05347079016082429,-0.38606075516382393,9.779717331584477,0.0038629216553396875,0.003680196987117546,0.0013930073775375743,0.7195800381384299,0.42769964668891475,-0.8826431388543611
25666,0.683,0.9999973305517346,0.0005874929198180597,-0.0006261626418916708,0.002145148437871647,0.02672919012080108,-0.3548923161911057,9.773106714789629,-7.927631389517663e-05,-0.0018171570980846149,0.00021110357709453812,0.7158937458814822,0.42245247028830935,-0.8790625533241684
25667,0.692,0.9999973454785619,0.0005913383987761867,-0.0006255347483606454,0.0021373022731900064,0.056670778775404454,-0.3506818609299986,9.801544336822154,0.0036829589926590683,-0.00016415245154832958,-5.468734737677176e-06,0.7215008160530905,0.4232274985485409,-0.8778306806460688
25670,0.717,0.9999973643357244,0.0005941186160593944,-0.0006325721646960064,0.0021256051213108876,0.04697255202404618,-0.3487161545109417,9.76133091674138,0.0030427172326099143,-0.0007425122435314289,6.582376789509424e-05,0.7241987248479079,0.4270710300924708,-0.8796582834694359
25671,0.725,0.9999973703293108,0.000597902776908444,-0.0006216351898284647,0.0021249509226960814,0.02372023909926413,-0.38877892458531377,9.75133812162321,0.003783707840710946,0.0018631168332965023,0.0016039577323733554,0.7163833301908948,0.43490450484411836,-0.8792545088127116
25672,0.733,0.9999973618986936,0.0006015263875608518,-0.0006204389269467611,0.002128242748432984,0.05669748620302122,-0.3493268037012528,9.801592570126237,0.003704428244080709,4.5974364553435315e-05,0.0018151909037217764,0.7246643522752745,0.42865553641617804,-0.8762909066007132
25673,0.742,0.9999973662845054,0.0005967623162179789,-0.0006266548150605324,0.0021257004809329375,0.02622741001820712,-0.35984610698807196,9.744650298577536,0.001762193909852868,-0.001899243292164889,0.00020853353697001623,0.7170530038340943,0.42692755078746136,-0.8699293862370868
25674,0.750,0.9999973711428329,0.000592358313596636,-0.0006338079383000229,0.0021225236275011256,0.058761321301220186,-0.32722840781261525,9.76637690027872,0.0017621971745506253,-0.001899243479584552,0.00020853478722921296,0.7163802968067231,0.4290573892455186,-0.8788038315328407
25675,0.758,0.999997351132896,0.0005958043478612036,-0.0006306050235585526,0.0021319197160228763,0.055622412960051125,-0.36208846957694835,9.744575904128084,0.0037259465037527287,0.0002562046335510304,0.003635776939746142,0.7173378845573897,0.4323325913486819,-0.8759814203270962
25676,0.767,0.9999973510815078,0.0005990737405576925,-0.0006380843621736186,0.0021287998891762936,0.05568666614399096,-0.3617917592822032,9.744586557864258,0.0036036770598923814,-0.0019814041228691155,0.00020582260286314247,0.7249001025548364,0.4279666326640569,-0.8750435109164421
25677,0.775,0.9999973414090072,0.0005943727784121721,-0.0006429910049991249,0.002133180368926504,0.05651506291958401,-0.3548962928342925,9.773111452110742,0.0017836724905330164,-0.0016889999114218246,0.00202921824482175,0.7212039380842994,0.42961142614344133,-0.869996186551074
25678,0.783,0.9999973483828029,0.0005979651212394684,-0.0006429334306660718,0.0021289203089521333,0.05658753994931523,-0.3546741591918759,9.773119096882514,0.003683011238387028,-0.00016430851222313565,-5.541619153629498e-06,0.7163586974447502,0.4350336916062839,-0.875594761678993
25679,0.792,0.9999973318227917,0.0006006827316473467,-0.0006481721757830601,0.0021343383949891524,0.030002578093923624,-0.3233620911869538,9.766504542048052,0.0036251918676689005,-0.0017711236959711406,0.0020264768550623626,0.7266038706891905,0.4338568105167119,-0.8742627700442716
25680,0.800,0.9999973541163371,0.0006042434977565102,-0.0006492536277228285,0.0021225267603189493,0.02688656073980631,-0.35815088331460654,9.744710955219855,0.0036614975163623024,-0.00037467502887618143,-0.0018261873501605264,0.7173120153951549,0.43417831124273665,-0.8721379758412698
25681,0.808,0.9999973118586333,0.000607245140988649,-0.0006444836246131107,0.002142934834378722,0.059261289102613315,-0.32537408087245145,9.766435833677335,0.0037476157909245335,0.00046677437389592403,0.005456308373441935,0.7175446163571204,0.42715431455456476,-0.8704226783656592
25682,0.817,0.9999973132849778,0.0005955219268084603,-0.0006426343838039359,0.0021461121849925967,0.026839066064769865,-0.35769823348138957,9.744727711638944,2.1532831493074643e-05,0.00021039017391210287,0.0018206214617949594,0.7143930200350376,0.4304581940561776,-0.8737363924709368
25683,0.825,0.9999973161453665,0.0005984448246356685,-0.0006491643282610142,0.002141997089461999,0.05745622832262592,-0.34679925834414177,9.80167790684358,0.0036036425858889656,-0.001981534977659461,0.00020592487981498743,0.7192754321030872,0.42923825071255034,-0.8736604670756889
25684,0.833,0.9999973351740953,0.0005946866190288808,-0.0006412437437083766,0.002136539022666118,0.027602054825834686,-0.3506449556628356,9.773257599586705,0.0019209082657384057,0.0017348924219863515,-0.0002142855818962664,0.7170692906163012,0.43319374411702377,-0.8723491531664094
25685,0.842,0.999997340234391,0.0005897982209476959,-0.0006473436984775968,0.0021336842171903497,0.0294456677111082,-0.32877254400341227,9.738029800808915,0.0017621307562221181,-0.0018993178329286611,0.00020874160995008843,0.7119718001632656,0.42522247015239967,-0.8767437480080276
25686,0.850,0.9999973295485506,0.0005854253166187237,-0.000653357219886269,0.002138059239268962,0.05693177342198357,-0.35296178727628663,9.773179090566215,0.0017836849791614438,-0.0016888726855628074,0.0020293583813234973,0.719567016607244,0.42825652363285394,-0.8807084982278465
25687,0.858,0.9999973334893743,0.0005894177459202192,-0.0006440303695841813,0.0021379489577152216,0.056919337098832734,-0.3527359239873187,9.77318731786737,0.0037840162076256054,0.0018630994888383437,0.0016034796732361833,0.7224905327496038,0.4302428827859017,-0.8797817452347833
25688,0.867,0.9999973140378317,0.0005997138043204042,-0.0006669102256382538,0.0021371689748069063,0.030413878948999253,-0.32135115705002953,9.766569644494702,0.005286340041884893,-0.00569802097812806,0.0006263740586596828,0.7232329070667283,0.4306791854184865,-0.8812579389822528
25689,0.875,0.9999972852145669,0.000587888996059976,-0.0006618009478340024,0.0021554511199206833,0.028089575045039047,-0.3495382311020444,9.773295854710428,6.480453682645071e-05,0.0006315810193120226,0.00546182216434009,0.7192655210379169,0.4290459367486912,-0.8721879559664673
25690,0.883,0.9999973198576366,0.0005840993634636414,-0.0006550207342005363,0.0021424409712819093,0.05717678758867143,-0.3520714709996515,9.773209773695568,0.0018993791510974322,0.0015242742266694826,-0.0020350364332461564,0.7217208209873056,0.43239287850435915,-0.8742439606264423
25691,0.892,0.9999973118903184,0.0005872748898424491,-0.0006526127494565883,0.0021460235182465554,0.057798759831875074,-0.3451571325739875,9.801733856245786,0.0037046529749312604,4.5992886016549573e-05,0.0018150030451269052,0.7214624470600803,0.4278259934050639,-0.8721301058353363
25692,0.900,0.9999973189454201,0.000590867175309791,-0.0006525558942705594,0.002141763002380164,0.02541234039366296,-0.37733336487995156,9.780039464817671,0.0036830685135033126,-0.0001645769372507683,-5.59767325760777e-06,0.71046856263306,0.4295769763401972,-0.8710444201765336
25693,0.908,0.9999973109204918,0.0005861333995661884,-0.0006575720754788261,0.002145273499841612,0.056501918877743196,-0.35800826465252844,9.744721600695497,0.0017836772636187733,-0.0016887741073390963,0.002029485999725454,0.7195449726267041,0.425440621468692,-0.8774333703098123
25694,0.917,0.9999973073440964,0.0005820839192371838,-0.0006560483549274078,0.0021485072548263233,0.027379628198035747,-0.3552473592785935,9.744815863178248,0.0018631478446195417,0.00012830623978695867,0.0018177899370860253,0.7188112729586601,0.42691316593185574,-0.8772459903194565
25695,0.925,0.9999972688285689,0.0005927913498497846,-0.0006682053649676843,0.002159730402047983,0.05989706947824849,-0.3224753483307293,9.766528098115359,0.005408890111891241,-0.0034598635145541836,0.0040562022199957535,0.7209378749421034,0.4272835013167303,-0.8667399263503371
25696,0.933,0.9999972880859292,0.0005890336992327823,-0.0006602854119900681,0.002154270935578614,0.027570576274155587,-0.354655581167602,9.744836880183597,0.0019210477892167787,0.001734722525287139,-0.00021458487135351834,0.7190464244559674,0.43062467066760374,-0.8759096320961546
25697,0.942,0.9999972848771952,0.0005995782757766935,-0.0006668094774917847,0.0021508391967992486,0.05561342358792603,-0.3719927640085654,9.808512098784329,0.0054451313438766795,-0.0020641159597995173,0.0002033239745365831,0.7329334930475828,0.43468351348180967,-0.8715620688951982
25698,0.950,0.999997293484315,0.0005881789195995086,-0.0006574218888658131,0.0021528739081728542,0.02826996054254593,-0.34744024232548915,9.773370143011098,0.00010115322676758733,0.0020277866372288584,0.001608777642484623,0.7234339205197068,0.4360354836336189,-0.8748496083061507
25699,0.958,0.9999973070473955,0.000598622898656656,-0.0006571097391696762,0.002143771296831041,0.028206345635825834,-0.34721200143951836,9.773378438780254,0.005503015696798751,-0.00045780937595434,-0.0018290225280178534,0.7144521386257849,0.4301481458269803,-0.8825197855918614
25700,0.967,0.9999973117506943,0.0005942179339284825,-0.0006642626090600437,0.002140596089457317,0.05748448491749861,-0.3495308911843603,9.77329916031422,0.0017620489350533967,-0.0018994098780333265,0.00020904076738043867,0.722912651883014,0.4286354714685395,-0.869950235087335
25701,0.975,0.9999972898026109,0.0005976302407232919,-0.0006609961975756072,0.002150885760767467,0.05754577602736683,-0.34930831145295643,9.773306757597194,0.003726415212175875,0.00025685189504610917,0.0036355146164423124,0.7217037806378385,0.4229548324813659,-0.8717122343725738
25702,0.983,0.9999973194972771,0.0006015142831391184,-0.0006545439174095094,0.0021379314975382333,0.028981924308702885,-0.3396946951785344,9.80192090226272,0.003740995647334846,0.0014414928245117563,-0.002038114303505021,0.7197631805928376,0.42704235269402124,-0.8735796703624227
25703,0.992,0.9999972781678321,0.0006048177584887685,-0.0006573512860910992,0.002155398268042788,0.05815273037671708,-0.3420085595852079,9.801842129777876,0.0036685333323585095,-0.0013492801340838677,0.005668039042866222,0.72221909906093,0.439913464980793,-0.875727569853787
25704,1.000,0.9999973006836941,0.0006083781759958073,-0.0006584358423839394,0.002143586611965892,0.05936822255783294,-0.326701088093414,9.738095274342337,0.0036614680349113284,-0.00037567438552616426,-0.0018262028779151688,0.7209691343872658,0.42736385342004607,-0.8713842183087817
25705,1.008,0.999997327628353,0.0005886202457471504,-0.0006485980400345438,0.0021395286727365916,0.028291140305005128,-0.3457120656184623,9.773431364946015,-0.001762019124598992,0.0018994376839858683,-0.000209162744087953,0.7149031794207332,0.42570183503903947,-0.8769852371917982
25706,1.017,0.9999973085782159,0.0005846028624351707,-0.0006459315355415467,0.0021503135281098476,0.05737468007911336,-0.34832414820426805,9.773342888649232,0.0018848586009373876,0.0003393578916312418,0.0036383435677740323,0.7228872655696094,0.4255928055372742,-0.8661785286290707
25707,1.025,0.9999973049241785,0.0005880857065690338,-0.0006435553406643464,0.00215177510567532,0.05413658569817191,-0.3831955927915515,9.751569727494537,0.0037047826274497365,4.604927324872762e-05,0.0018149767722380773,0.7175196937774142,0.426063557973103,-0.8667198699532692
25708,1.033,0.9999973013140216,0.0005840363609295953,-0.0006420301128754429,0.00215500894138953,0.02815914745745735,-0.3452541638202515,9.773447932498502,0.0018632209528223957,0.0001284826439963271,0.001817774344439638,0.7241409394915438,0.43299281770235354,-0.8710729722303998
25709,1.042,0.9999973060057561,0.0005797894720165618,-0.0006315212165174248,0.002157082833757301,0.05656186913781951,-0.354415801610283,9.744852572260514,0.001942827416013973,0.0019455194947102026,0.0016057554022152333,0.7195198570317295,0.4304581940561776,-0.8737018851485315
25710,1.050,0.9999973045518368,0.0005837377085549045,-0.0006227865677030118,0.002159230474134896,0.05640249005413805,-0.35418401068544864,9.744861923694044,0.003784404420433661,0.0018630588582201025,0.001602981366670126,0.7202391248523605,0.43052709366266584,-0.8717450903930617
25711,1.058,0.9999973265497003,0.0005638593608279219,-0.0006205729700648615,0.0021549582972361743,0.027828522047277624,-0.3447877872396579,9.773465343447054,-0.001841571558189949,8.247269629971848e-05,2.760323592645047e-06,0.7142050860799571,0.4247890075658314,-0.882087976029288
25712,1.067,0.9999973041257075,0.0005668355675894356,-0.0006344475836895539,0.0021605358179538144,0.05898895965487641,-0.32563667958337617,9.738133230791115,0.003545512836708686,-0.0035880512123615854,0.0022391426130394347,0.7131861967399246,0.4264768632992711,-0.8758026606885633
25713,1.075,0.999997304559004,0.0005779060862513561,-0.0006418149263668505,0.002155219915269021,0.05553329277411811,-0.3686719011558452,9.808637935210424,0.005445084042746417,-0.0020644993766455433,0.00020372277928355624,0.7222234650581675,0.4306074457659817,-0.8763762367048757
25714,1.083,0.999997325784872,0.0005821465755045387,-0.0006266859106718444,0.0021486724363272928,0.024921011797569576,-0.37907548558331516,9.751717161010754,0.0038424466585169357,0.0034690635300648927,-0.00042983143704566055,0.7190554080537407,0.42691316593185574,-0.8772443471136278
25715,1.092,0.9999973171678005,0.0005775865590792458,-0.0006316733622867837,0.0021524497050442277,0.05655471683328183,-0.3530671440325966,9.74490157032217,0.0017835897154254686,-0.001688453157107697,0.002029933727112811,0.7159266283945892,0.42936450511593777,-0.883947988443173
25716,1.100,0.9999973360417415,0.0005738292675073417,-0.0006237533701634849,0.002146988850963335,0.05655017680361951,-0.3529171419172822,9.744907030260293,0.0019212414280269396,0.00173451363260794,-0.00021494023239206715,0.7280471589795451,0.4332368063710789,-0.871055293192873
25717,1.108,0.9999973098793508,0.0005691414684368616,-0.0006275446403292792,0.0021592822362231554,0.059064229687511675,-0.3243675032188953,9.73817513160626,0.0018052375831754811,-0.0014773515089839136,0.0038505157836397266,0.7253668504648686,0.42734662851842403,-0.8718426068883586
25718,1.117,0.999997303741565,0.0005570942587063562,-0.0006332275540001924,0.0021636031181001833,0.05733932281081548,-0.3459941308892985,9.77342586036014,-5.801192363935651e-05,-0.00160591653803788,0.002032741690569232,0.7243942900512468,0.4302572676415074,-0.8724404930649813
25719,1.125,0.9999973041665969,0.0005606835821850829,-0.0006229489316087028,0.0021654625575814,0.05663515537014168,-0.3525466784473776,9.74491994656002,0.0037845571309137165,0.0018630130172846795,0.00160278916807107,0.7192625265053258,0.43028310499394046,-0.8717430509606428
25721,1.142,0.9999973185965075,0.0005678681250717162,-0.0006228370828438282,0.0021569421772570114,0.04140373503205896,-0.35827804844922495,9.77686140484652,0.003683179889164468,-0.00016512211370499954,-5.539899003093679e-06,0.7158832360340572,0.42666056481231923,-0.877501079675916
25722,1.150,0.9999973263729733,0.0005630486579875271,-0.0006284854798889961,0.002152958224408567,0.025639129977674473,-0.3707946011607635,9.780288962173692,0.001761882486593523,-0.0018995641595860725,0.00020950467809529634,0.720005325704568,0.42558703313247964,-0.8732823704799402
25723,1.158,0.999997310948005,0.0005663489856346181,-0.0006348229595957385,0.002157393194655715,0.06002691774013315,-0.3164008418922698,9.76672597975299,0.0036251770140989115,-0.001770933151947666,0.0020272673089644735,0.7144197007312448,0.43202831552427917,-0.8777004085370432
25724,1.167,0.9999973162224682,0.0005623862530119957,-0.0006248976440603073,0.002158882233500707,0.05495167164786191,-0.37297110133260425,9.78021707210348,0.001943032682460022,0.001945640175091936,0.0016054312694984223,0.7143714589033279,0.4227539060666956,-0.8705330025804646
25725,1.175,0.9999973365835538,0.0005579479220736422,-0.000633193396584981,0.0021481587552639723,0.028310934780821372,-0.34180082558014696,9.773568874952188,0.0017401643464528462,-0.0021108225692317976,-0.0016109849985648519,0.7217481584324797,0.429806580153317,-0.8783055514873137
25726,1.183,0.9999973139646804,0.000553511122071665,-0.0006370822940227674,0.002158660467366646,0.025232346199406477,-0.3767624288521295,9.751805999808754,0.0018053055163666813,-0.0014770744402290842,0.0038506263011203186,0.7250988361909034,0.4306476679740204,-0.8682964622850148
25727,1.192,0.9999973746597031,0.0005573308101665326,-0.0006329201034650047,0.002130602781491871,0.027095792671058123,-0.3548496533799292,9.71656108774754,0.0036977748995235937,0.0010179855424362174,-0.005679565216983238,0.711761957897519,0.4311499378543152,-0.8818403604521718
25728,1.200,0.999997349730599,0.0005612579424138665,-0.0006133856781471463,0.0021469232195330044,0.02573587480888804,-0.3695199908770496,9.780336949249419,0.003907777824369311,0.004102723181352576,0.0050312426947633875,0.7207607024377464,0.4323067539962488,-0.8766903648722365
25729,1.208,0.9999973761471772,0.0005721347103288642,-0.0006234808953406517,0.0021287630699713886,0.027510592358737766,-0.3474543001044064,9.745096471156542,0.005401702313996354,-0.0024874385058007856,-0.0034369142226530727,0.7187794338463747,0.4243929271412854,-0.8725155758036691
25730,1.217,0.9999973853550883,0.0005754830251727389,-0.0006223362883745979,0.002123864360010021,0.05749157601731142,-0.3429953558914186,9.77353066681896,0.0036832312950972022,-0.0001651563617504222,-5.544338025297764e-06,0.7158853999175443,0.4288478503800373,-0.8778225731197724
25731,1.225,0.9999974192760096,0.000571693750028909,-0.0006155597428368991,0.00211085143489622,0.0574391958838249,-0.3427675154193485,9.773538967822278,0.0018996394351817394,0.0015230096043554954,-0.002035773601788299,0.7146658258096754,0.43348363508582094,-0.8779944220078679
25732,1.233,0.999997419539362,0.0005746344589999169,-0.0006224187616342486,0.002107914785192908,0.025750300954170597,-0.3683180044839401,9.780382250202662,0.003603532565720145,-0.0019821025390017984,0.00020698070189444944,0.718328914751837,0.43103513594775533,-0.8781276345053407
25733,1.242,0.9999974242655377,0.0005702283214969781,-0.0006295708831863193,0.0021047428478211862,0.056928597640893676,-0.3490382666852099,9.745044529561234,0.0017619154592320237,-0.0018995382796584965,0.00020975418043644227,0.7212050585669648,0.4274069156741012,-0.8701626593917133
25734,1.250,0.9999974327914632,0.0005734959167649727,-0.0006283886724777699,0.0021001525167029926,0.05770176986502999,-0.3421028785941141,9.773560708203474,0.0036832521635537636,-0.00016513282590839608,-5.5679540085051644e-06,0.7182969597061272,0.4280269198197342,-0.8733799954780848
25735,1.258,0.9999974175660159,0.0005767962246132016,-0.0006347248641179736,0.0021045882642358083,0.05524663784336364,-0.37020183738103796,9.780320624562357,0.003625273040447527,-0.0017706289780288896,0.0020275120828143643,0.7207205944433672,0.42958558879100833,-0.8707314223894753
25736,1.267,0.9999974414414129,0.0005799842037450943,-0.0006345921541460604,0.0020923722780136285,0.0553338316125329,-0.36990493652472495,9.780331365265903,0.0036615281457921312,-0.0003766651806402916,-0.0018260940534199639,0.7178191222815469,0.4304151318021225,-0.8749333033005727
25737,1.275,0.9999974600235072,0.0005762276181084195,-0.0006266717971669494,0.0020869093714852367,0.027943327220170226,-0.34537622242073923,9.745169109603308,0.0019213410164927757,0.0017343937539942365,-0.0002154180212243647,0.7200279684673624,0.42400252680877243,-0.876646460937005
25738,1.283,0.9999974557904819,0.0005790516333527288,-0.0006407062571398982,0.002083892334494989,0.028717083139618082,-0.3384377627220064,9.773684724157654,0.003523865248935037,-0.0037990556417760437,0.00041971657006530653,0.7182709363802044,0.4430652527265853,-0.8695136465174139
25739,1.292,0.999997482338376,0.0005749377311786171,-0.0006414661895168384,0.0020720242862451365,0.08724417169138245,-0.343463117921979,9.77351348598327,0.0018198886334523795,-0.0002941401936352632,-0.0018233041679960585,0.7175611350061766,0.434396462559029,-0.8728768943179189
25740,1.300,0.9999974578388168,0.0005847825956428202,-0.0006469578244715753,0.0020793726923534783,0.028972909679460295,-0.3379232516852069,9.773701771963692,0.005466995237621484,-0.0018530430608493672,0.0020247558632380345,0.719552140141264,0.42100576317757865,-0.8784982654178346
25741,1.308,0.999997454458485,0.0005807336620427199,-0.0006454288614626298,0.0020826057115418987,0.025815579313567927,-0.37273995075139504,9.751959051449727,0.0018634159100222654,0.0001290523646257616,0.0018176736658205134,0.7263521814276955,0.4297434529516233,-0.8731420723336258
25742,1.317,0.9999974402257149,0.0005767409334684274,-0.0006415048204147342,0.002091741733350602,0.057498680952187534,-0.34681610380801886,9.745120520042843,0.001885192562601578,0.00034069081876539234,0.0036381661987585495,0.7156671728362796,0.4340864143298317,-0.8816734330854742
25743,1.325,0.9999974785593557,0.0005652777531911221,-0.0006344007236749514,0.002078670660511842,0.05741734573438852,-0.34673758697866347,9.745123793558403,5.796975385235741e-05,0.0016052933445831106,-0.0020332404540220443,0.7173407631565561,0.43060744576598164,-0.8764091008214521
25744,1.333,0.9999974559279609,0.0005678830178305918,-0.0006476203692053061,0.0020847624184954345,0.028318446075902205,-0.3439683598487986,9.74521782118465,0.003545601069297825,-0.0035874381237395976,0.0022403934886098486,0.7244331616295359,0.4346949659786371,-0.8782157381956347
25745,1.342,0.9999974777486093,0.0005714428810658688,-0.0006487093792477665,0.0020729509389614633,0.05581806667802529,-0.3679715537583121,9.780401545358329,0.003661514712237278,-0.00037691287957999665,-0.0018261346897518159,0.7197665808924149,0.42751310512985014,-0.874084861158387
25746,1.350,0.9999974748884004,0.0005670065969689192,-0.0006459939508324725,0.0020763940277219836,0.02595720158379013,-0.37184573052111597,9.751992813397313,0.001863445545601543,0.00012910521938279206,0.0018176581467612232,0.7158390130244214,0.4273810783216681,-0.8709307593466911
25747,1.358,0.9999974596779866,0.0005703067576277661,-0.0006523289698100232,0.0020808302890776248,0.029242245849490707,-0.33650602241905025,9.773749866828517,0.003625366641379311,-0.001770449774279543,0.00202765934885074,0.719705337269761,0.4327201516351785,-0.8649857468676524
25748,1.367,0.9999974723362085,0.0005656173258754072,-0.0006506075600128038,0.0020765615902510414,0.024250284399784598,-0.39307151045149635,9.787274484083412,0.001841658703980991,-8.26325097719676e-05,-2.8336851375445654e-06,0.7224790183529382,0.43714346511670266,-0.8780710232573602
25749,1.375,0.9999974642233348,0.0005692425640060453,-0.0006494064610749689,0.0020798512092598423,0.05780026757636085,-0.34540619083234214,9.745168811068325,0.003705132633978288,4.649762342594289e-05,0.0018148122036653169,0.7212469246778451,0.43060744576598164,-0.876382809528191
25750,1.383,0.9999974792539109,0.0005569391515508189,-0.0006475818608984056,0.0020765216924153733,0.02792421646009942,-0.3493567222252859,9.716757789575741,1.2490009027033011e-15,1.186e-321,-1.3356015512305808e-16,0.7210086435993904,0.43448542711315574,-0.8772541982525122
25751,1.392,0.9999974939130747,0.0005601735313849833,-0.0006562072541974232,0.0020658570193665313,0.0560474990163503,-0.3667787711959872,9.780445037043094,0.003581750428484773,-0.002194013177009863,-0.0016132415014167025,0.7263243222821105,0.4301338532841364,-0.8690029711711457
25752,1.400,0.9999974857796643,0.0005632193857168363,-0.0006535552957213713,0.002069802828854689,0.05613470500880471,-0.36648186318404374,9.780455666697348,0.0037051621898172007,4.6548841927260604e-05,0.001814782715189883,0.7192470901086722,0.43451703687038346,-0.8694496278856466
25753,1.408,0.9999974918048136,0.0005674951182417161,-0.0006372820708657585,0.0020707981396337048,0.028639197569025315,-0.34188352363664753,9.745290247299923,0.0038647029551168513,0.003680392552473387,0.0013888895791647324,0.7136525388829705,0.42414893847256,-0.87254147087034
25754,1.417,0.9999974759661753,0.000562362472492058,-0.0006497459014334799,0.002075967242445386,0.0578058027972488,-0.3442826793246324,9.745208534977529,0.0017039170519272584,-0.0035046209705133454,0.002243607610598392,0.7190455938068634,0.4340491244805711,-0.8757862205341866
25755,1.425,0.9999974678668166,0.0005659876520746824,-0.000648544294015942,0.002079256653827397,0.02876152906242241,-0.34143868669909255,9.745305482172169,0.0037051831252566917,4.6533620078270275e-05,0.0018147925921970277,0.7149191763693785,0.43074808502497475,-0.8793619428424494
25756,1.433,0.9999974641682138,0.0005615225963219453,-0.0006462510013836995,0.0020829568309838347,0.028749226702562435,-0.3412130024280338,9.745313422692112,0.0018635137443574852,0.00012922441246236748,0.0018176286402487784,0.7172578813203488,0.43470651078822625,-0.8640951444028232
25757,1.442,0.9999974456224893,0.0005575065413124491,-0.0006435746812129531,0.0020937398556116534,0.05675328222060226,-0.35862171034956,9.809003546658897,0.001885358695075915,0.00034115358937162585,0.003638091680820356,0.7243728257378301,0.4298812521645999,-0.86925148770429
25758,1.450,0.9999974499836631,0.0005522884303306135,-0.0006491179588413125,0.002091327219072043,0.058652692051550694,-0.33681102719256983,9.773738843481254,0.001761830543846324,-0.001899640336398018,0.00021022011787857076,0.7230043822684383,0.4271772195482197,-0.8835788420302806
25759,1.458,0.9999974523046303,0.0005635547094216442,-0.0006493912503644456,0.0020871227426508044,0.055510635887811355,-0.3716368751629485,9.752009351619972,0.005525042082340677,-0.00024820532159731875,-8.520109117396176e-06,0.7144695458906574,0.43420982868720265,-0.8851060253618234
25760,1.467,0.9999974809483301,0.0005444156781336119,-0.0006403020723568129,0.0020812788905545626,0.028800368298673492,-0.3404650988459265,9.745339429418182,-0.0017618358019069519,0.0018996357228468102,-0.00021026392971098555,0.7173089628958514,0.43517149081926054,-0.8716844585797111
25761,1.475,0.9999974903191222,0.0005560075422022023,-0.0006330398730326403,0.002075926682227145,0.02935355913854877,-0.333577545965066,9.773849920613795,0.005604900577257134,0.0015687010634920498,-0.00022156313847708695,0.7287921220622741,0.4307280200773361,-0.8729161061560269
25762,1.483,0.9999967092122716,0.0006266707021134871,-0.000676044363483004,0.0023941203975280908,0.05856034072898274,-0.33582984744427247,9.77377316051469,0.003581696572535411,-0.002194389476786434,-0.001612938299629367,0.7167994793742546,0.42893113484213125,-0.8685360286353024
25763,1.492,0.9999967346953704,0.000615269792429365,-0.0006678153100960264,0.002388736986781315,0.05604345861798279,-0.36407176061298385,9.780546200877131,7.983382818911846e-05,0.0018168945116311978,-0.00021315849423706178,0.7261199282660036,0.438231381652148,-0.8749090433436422
25764,1.500,0.9999967132246884,0.000618277633142229,-0.000665266295319454,0.0023976432899432414,0.028628130590209324,-0.3396333495314965,9.74536895972692,0.003705217915777605,4.661873250184186e-05,0.0018148279586318796,0.7246323972295644,0.4256473202881568,-0.8715432675734572
25765,1.508,0.9999967132901808,0.0006215788793865759,-0.0006727619661287118,0.002394669052266689,0.058576143407428984,-0.3352293867529045,9.77379367933564,0.0036035423290939933,-0.0019823559272757235,0.00020757310701035735,0.71878723899477,0.42264194420615214,-0.8736752057247686
25766,1.517,0.9999967404908836,0.0006017966837958634,-0.0006779805358149604,0.0023868788728092184,0.05619172211968312,-0.36355206081798724,9.780564681803735,-0.001921541480345746,-0.001734153103492831,0.0002160354596295451,0.7224814911851184,0.43371039885292423,-0.878438417961576
25767,1.525,0.9999966931305667,0.0006125139315473684,-0.0006910460073086642,0.0024002104139160983,0.05570210191491068,-0.37014583119159716,9.752064967810012,0.005409136339549523,-0.0034577941842372484,0.004058789133083596,0.7263655507591552,0.43065050802003685,-0.8751283864945463
25768,1.533,0.999996697497315,0.0006157364392176762,-0.0006908604793949542,0.0023976185892066,0.029211552093651963,-0.3387594148453461,9.745397646439502,0.0036615036372521876,-0.0003776718875159114,-0.0018261518303182283,0.7239434811231477,0.4356795331043499,-0.8780094904879815
25769,1.542,0.9999967024647255,0.0006113634637715768,-0.0006980293809424049,0.0023945875166563766,0.056645003940209895,-0.3628204150751789,9.780589235595107,0.0017618486388399142,-0.0018996342572957972,0.000210415482829564,0.7219917138604371,0.4273666934660625,-0.878217785724142
25770,1.550,0.9999967017817478,0.0006070120554984525,-0.0006965323357630799,0.0023964149674579804,0.05926088734220049,-0.33428320473168266,9.773821958238747,0.0018417046569938846,-8.275542906546258e-05,-2.870800959431396e-06,0.7139019483275538,0.4255870331324797,-0.8733234506256607
25771,1.558,0.9999967049496487,0.0006033180320193588,-0.0006874829987803309,0.0023986380145323023,0.02746846407118919,-0.3598919885802856,9.780691254993199,0.0019434734134439466,0.0019463138590909625,0.001604260591878931,0.7249230931179049,0.4278460583527024,-0.8784592749079128
25772,1.567,0.9999967212886565,0.0006144852516893917,-0.0006867754499260356,0.002389175442395257,0.02670149295148168,-0.36632617321272515,9.752199702436402,0.005525127328630311,-0.0002483041588538324,-8.559872871484807e-06,0.7226531963247044,0.43335738068243346,-0.8676756797296362
25773,1.575,0.9999967339965251,0.0006104355482734747,-0.0006864084717317058,0.0023849964643045444,0.058429473720148846,-0.34026492268522224,9.745345927013567,0.0018417124269049278,-8.276824590159679e-05,-2.852023234819979e-06,0.7222467454547973,0.43170681479825446,-0.8798350619750179
25774,1.583,0.9999967250520001,0.0006062254077247021,-0.0006760459639395623,0.0023927678292882666,0.026636795909791903,-0.3658731957933835,9.752216883572704,0.001943487145474486,0.0019463625182457945,0.0016042026051755526,0.7202498665666348,0.4272949538135578,-0.8733410130642513
25775,1.592,0.9999967377373712,0.0006021755826268098,-0.0006756789479807676,0.0023885889439586635,0.026558629817243398,-0.3657195642627077,9.752222859205947,0.0018417152218140496,-8.278077254236324e-05,-2.8351463092417266e-06,0.7178271592967918,0.4296401035418909,-0.8761273822446094
25776,1.600,0.9999967534552111,0.0005975254454363975,-0.0006818175175126463,0.0023814212674942146,0.053976440672508536,-0.38985045497249715,9.78741606372658,0.0017618337204321163,-0.0018996453592285037,0.000210563734314239,0.7175890521184739,0.4342500508952414,-0.8770246077361334
25777,1.608,0.9999967737051234,0.0005937991257224061,-0.0006739147829281044,0.002376093602606757,-0.0025329919232043928,-0.36279512278504034,9.752323919654911,0.001921601510393425,0.0017340802515462717,-0.00021626006468036249,0.7265979587058524,0.4297348405008123,-0.8733844122700449
25778,1.617,0.999996742419679,0.0006043675949431764,-0.0006793744702296592,0.0023850241446474367,0.056521646332236775,-0.36101016169602645,9.780656935334225,0.005467176511134951,-0.0018528858128757707,0.0020253467576178,0.7214595493457825,0.4363914341628878,-0.8716995853592927
25779,1.625,0.9999967251391847,0.000607701339826798,-0.0006857224897152,0.002389601359062991,0.03002158150604793,-0.32962262200296966,9.773982069919434,0.003625466989191672,-0.0017700897232066153,0.0020281961390004187,0.7275823622012824,0.4282278462344044,-0.8745460816235635
25780,1.633,0.9999967150221591,0.000610820626098163,-0.0006842128013836438,0.002393469426572128,0.02616809344781351,-0.37120145876591043,9.723767626617702,0.0036834558124125426,-0.00016562561508038485,-5.708829121387897e-06,0.725358987349761,0.4288536227848319,-0.8706743647115249
25781,1.642,0.9999967104285074,0.0006068033909049904,-0.0006826979862199771,0.0023968406849179864,0.056737795307611597,-0.3601175534608969,9.780688588949388,0.0018636599387529208,0.00012960227057675603,0.0018175545563133009,0.7234398707333083,0.42647686329927104,-0.8757336460437528
25782,1.650,0.999996704439942,0.0006098700271972433,-0.0006887566476582932,0.002396827504495429,0.02947274627576853,-0.3356222413403497,9.745505405738388,0.003603543712020937,-0.001982500568605481,0.0002078377463424447,0.7195376503271389,0.4223032185785052,-0.8763454784162749
25783,1.658,0.9999967171621116,0.0006058201920862855,-0.000688389310146508,0.0023926485434990668,0.05689412859086531,-0.3596733655032329,9.780704025374154,0.0018417346662712275,-8.282885060868355e-05,-2.8638886644462764e-06,0.7219822665289656,0.42912628885200693,-0.8768141726607946
25784,1.667,0.9999966883269994,0.0006168149623273874,-0.0006928832618761956,0.002400580580285917,0.028923811864035073,-0.3418505495465378,9.717021840823682,0.0054891921240934494,-0.0016403880870052066,0.00384579883257893,0.7148196019839781,0.42687303603657867,-0.8645679337043579
25785,1.675,0.9999966830408903,0.000627790682933034,-0.0007007056402180568,0.0023976650479083693,0.057103557487052745,-0.3589308694617574,9.78073008191352,0.0054452800173222585,-0.0020654122851709047,0.00020501054542271536,0.7199977333078902,0.4351542659176384,-0.8721543496000899
25786,1.683,0.9999967204404463,0.0006157316032186155,-0.0006912383332178329,0.002387922216459023,0.059651936949233736,-0.3303183251029278,9.773954380676056,7.994462125138319e-05,0.0018168306291242047,-0.0002136666630051366,0.7190342335738854,0.42775709379857557,-0.8740984030316078
25787,1.692,0.9999967108103777,0.0006193890759769936,-0.0006900499316275635,0.0023913503906921258,0.05887631099958214,-0.33691355415151425,9.745459676220948,0.0037054603499971006,4.683506652941951e-05,0.0018146537324290858,0.722241934838993,0.4322206294881384,-0.8791203370597427
25788,1.700,0.9999966896613384,0.000615109789484145,-0.0006863503711485296,0.0024023383359740432,0.05631372504369081,-0.365074889490176,9.752252604725761,0.001885692638345106,0.0003422890751137808,0.003637914841143617,0.7254062628587,0.42713992969895914,-0.8776982023023084
25789,1.708,0.9999966625515012,0.0006188001153392386,-0.0006840137483856013,0.002413316694588101,0.026653284433607073,-0.37035190764691167,9.84463796609222,0.0037274506788332923,0.0002593871872297965,0.0036350553381132586,0.7200224431358789,0.42842877264907464,-0.8758255489712307
25790,1.717,0.9999966788425732,0.0006219183642910435,-0.0006915054116314198,0.0024036101261078737,0.05635380583674029,-0.36455198721430254,9.752271934374733,0.003581509545038183,-0.002195301127674398,-0.001612367562756534,0.7195072992342421,0.43296698034992037,-0.8718361425678911
25791,1.725,0.9999966768746074,0.0006258998206183661,-0.0006827814526123243,0.002405888327641214,0.030427383771318924,-0.3264814538854316,9.774086244098605,0.0037855032870980163,0.0018636320970559306,0.0016008739450166464,0.723680141795113,0.4240542015136387,-0.8751579139960854
25792,1.733,0.9999966689398122,0.0006292453199666245,-0.0006803513109148381,0.0024090001455404405,0.028502253468826653,-0.34781002329590144,9.809384381229489,0.00370549801441347,4.681886606802969e-05,0.0018146700000020283,0.7171075436758865,0.4281072719230499,-0.8780325034656734
25793,1.742,0.999996628727211,0.0006402866333717638,-0.0006858768000073917,0.002421185712798827,0.08621706090591845,-0.3594566670962602,9.780716853935498,0.0054892291014703035,-0.0016402282779469138,0.003846021840926757,0.7197893204735023,0.43325687131871754,-0.8774633361452328
25794,1.750,0.999996680387552,0.0006365238365723336,-0.0006707465004591876,0.002405026073615917,0.05696740950825595,-0.356518752785702,9.780819096734426,0.0019798717641315022,0.003337883720826138,-0.002250962225022688,0.7268531253487687,0.4277226439953314,-0.8750217530140771
25795,1.758,0.9999966531328779,0.0006402144741488488,-0.000668408942087342,0.0024160045440496983,0.030182450548104787,-0.3252668272729919,9.77412749973252,0.0037274862703326975,0.00025961213423854296,0.003635077604354269,0.716101849767177,0.4299702167187267,-0.8737076655186663
25796,1.767,0.9999966619889805,0.0006435308275216565,-0.0006671768008372435,0.0024117947855424294,0.05356948479165836,-0.39112686256428925,9.759132584531308,0.0036835371767336023,-0.00016596978720453249,-5.660527139332445e-06,0.7155855465312939,0.4296286510450635,-0.8695460140006409
25797,1.775,0.9999966824595565,0.0006398050076012923,-0.000659274096291228,0.00240646568626942,0.030807832352323948,-0.31798008639762393,9.802643793847606,0.0019218428686211316,0.001733808608392047,-0.00021676101801071664,0.7156271228086124,0.43160923779331656,-0.8757231028584473
25798,1.783,0.999996685960089,0.000634951027603297,-0.0006643831142271615,0.0024048910806560575,0.056043669091068865,-0.3623637475922964,9.752355274478433,0.001783669454362742,-0.00168694234326592,0.0020314974448773625,0.7195470594283474,0.43422421354280816,-0.8777434115162467
25799,1.792,0.9999967184689469,0.000638866919883839,-0.0006579572646173824,0.0023920686936689376,0.030115957498238324,-0.32436144986662296,9.774157792378148,0.0037416518927786105,0.0014379447377856755,-0.0020399766405093246,0.7172984141968458,0.43229530149942136,-0.8701172126574123
25800,1.800,0.9999966901057434,0.0006339575574422279,-0.0006617924137660191,0.0024041435429054017,0.0560525331070452,-0.361914234186249,9.752371915501161,0.0018056484958005764,-0.0014740208322411952,0.003851898536496384,0.7177941417351283,0.4290803865519353,-0.8712218826324484
25801,1.808,0.9999967104583419,0.0006302317527266762,-0.0006538898097301429,0.0023988139881965177,0.027556414371656564,-0.3523687933486719,9.780964935135584,0.0019218774060408277,0.00173377072528706,-0.00021682459353684726,0.7260808248208652,0.43281772864011636,-0.8690993491900517
25802,1.817,0.9999966995224707,0.0006413277617596932,-0.0006440605757718777,0.002403087356455311,0.05843494934137862,-0.3330730177504037,9.745594348066277,0.005627420332181249,0.0017806492201740184,0.0015979216449733625,0.7249009720555212,0.43162646269493865,-0.8751726947524564
25803,1.825,0.9999967175898717,0.0006296029341467924,-0.0006433653749331726,0.0023988519384601768,0.025489988478180844,-0.373455306498887,9.81627854376262,1.0538445116559103e-15,1.186e-321,6.58652819784944e-17,0.7197455803126966,0.42908899900274633,-0.87096475384357
25804,1.833,0.9999967040276883,0.0006328350441515088,-0.0006408695118967297,0.002404316916729637,0.0558122093339467,-0.3610787220887046,9.752404264394457,0.003705534808387167,4.689608345697487e-05,0.0018147745552803182,0.7209932263178681,0.4318790638144752,-0.8749636151592037
25805,1.842,0.9999966942188497,0.0006364926812069616,-0.0006396800438668396,0.002407745393662236,0.055802939734519434,-0.3607784166435334,9.7524154314937,0.003705543147000002,4.6895600106531854e-05,0.001814777741247594,0.7300553783642363,0.43001611901879844,-0.8792342273138598
25807,1.858,0.9999966449909599,0.0006428516138601894,-0.0006510628241238833,0.002423399642280906,0.028728706719153386,-0.3367422349906791,9.777617440313962,0.0036254144658252746,-0.0017698742507716216,0.002028896009478212,0.7182912216229258,0.4246369158100109,-0.872527474471061
25808,1.867,0.99999668949628,0.0006463087330118141,-0.00065111462701565,0.0024040239693916485,0.05609194715175543,-0.3598916622076721,9.752446537530044,0.0036615894359483983,-0.00037922451274832855,-0.0018259572664604312,0.7248854579557059,0.42169182688368345,-0.8728677271293673
25809,1.875,0.9999967000376,0.0006279487705791097,-0.0006251854764207018,0.0024113766550302243,0.05910663930780726,-0.3246586752569276,9.774147326219468,-0.0015573223132025354,0.00595951310409971,0.0030008986492935505,0.7217336686183545,0.4311040355542436,-0.8761527644857541
25810,1.883,0.9999966591344877,0.0006308490836515003,-0.0006366344695096588,0.0024245506490834824,0.027267907438269453,-0.35032264735717333,9.781039244267546,0.0035671562284928684,-0.003373563034567707,0.0040635293549892105,0.7192216267134236,0.43807067744551637,-0.8656664691899602
25811,1.892,0.99999667938635,0.0006271234604042355,-0.0006287319040031987,0.002419220666452583,0.024782537495067525,-0.37848187885313833,9.787848201236233,0.0019220094700957437,0.0017336294083131014,-0.0002169976077515492,0.7238762286988627,0.42943633708120416,-0.8680176338932395
25812,1.900,0.9999966982661367,0.0006298651909405023,-0.0006282818881214135,0.0024108066151990464,0.02912539072274062,-0.32825567730035676,9.745757357182987,0.003661619878593445,-0.00037935938203011936,-0.0018258819384206273,0.7192537168076897,0.4347265757358648,-0.8704341727103726
25813,1.908,0.9999966811010929,0.0006331984414556732,-0.0006346268315910519,0.0024153871983670166,0.05654186365442108,-0.3522134922294394,9.780977547473684,0.003625395867039537,-0.0017698294044721256,0.002029046204448414,0.724647215728832,0.4326540920747067,-0.8737448881277349
25814,1.917,0.9999966607143851,0.0006281942487478305,-0.0006393219541541518,0.0024238810829180927,0.05667677428086127,-0.35199401148279624,9.7809846674108,0.0017835975753335022,-0.0016867043705806072,0.002031832366021873,0.7263327070976289,0.43082275703625755,-0.8702487236495882
25815,1.925,0.9999966736047552,0.0006241438937446,-0.0006389542524430629,0.0024197027273144284,0.03011526443409957,-0.3208253045833847,9.774274502960163,0.0018418075647500848,-8.31412269205873e-05,-2.794667977848805e-06,0.7166123569531464,0.4266777897139413,-0.8770081837739337
25816,1.933,0.9999966504292569,0.0006355212797148766,-0.0006282049481485415,0.002429115376625807,0.05411567814431602,-0.379923824283304,9.787805649654812,0.005649691042287036,0.0019937074110451805,0.003417971861073518,0.7244123540650862,0.430162530682586,-0.8751243076297083
25817,1.942,0.9999966455183353,0.0006464959584192188,-0.0006360285236510829,0.0024262033653801875,0.05920851694331749,-0.32270969708951747,9.774211252314645,0.005445193775792442,-0.002066240239045006,0.0002060294026240283,0.7229274315307008,0.42855795941124025,-0.8721460833675662
25818,1.950,0.9999966715260177,0.0006270806753902212,-0.0006261302293372948,0.002423152419664422,0.026791021969878558,-0.355071335622483,9.752615723265667,-0.0017615661268530472,0.001899901033379113,-0.00021160641824640992,0.7141299323103013,0.4337333961593409,-0.8709221972943364
25819,1.958,0.9999966594811691,0.0006227389879182094,-0.000632146428710463,0.0024276765742087454,0.053409128005809825,-0.38609243875989085,9.759333932405902,0.0017835755526503978,-0.0016866360678254872,0.002031930249491779,0.7224624608523013,0.4228170332683893,-0.8756110350310539
25820,1.967,0.9999966837219957,0.0006183702695866333,-0.0006307708744285738,0.002419150951354044,0.059273517165134945,-0.3224120825322436,9.774220679127543,0.0018418173737743682,-8.318381496243081e-05,-2.785266944112852e-06,0.7256359278761044,0.44236196411885853,-0.8755467043872784
25821,1.975,0.9999966914606812,0.0006219947348914299,-0.0006307313093577108,0.002415029659690624,0.02570910336700236,-0.36953569719008045,9.816426308606335,0.0036836397494963207,-0.0001663679200807989,-5.568622419070583e-06,0.722446135839831,0.4302314302890743,-0.8731855881383556
25822,1.983,0.9999966934827823,0.0006175338299697344,-0.0006214882180567157,0.002417731967395727,0.05597284665228335,-0.3571121078537169,9.752549398051919,0.0019220862521276893,0.001733541618747067,-0.00021721933304512384,0.7229211526319572,0.42981235255811157,-0.871213212077246
25823,1.992,0.9999966763691932,0.0006208668367634749,-0.000627832132089472,0.0024223133059908092,0.025395871192953456,-0.3677927577067022,9.695656635192417,0.0036254004329580713,-0.0017697545734455399,0.002029229345903345,0.7192853240531258,0.4362708598515333,-0.8751301382032228
25824,2.000,0.9999966920130503,0.0006165524950586199,-0.0006187289854040729,0.0024192975056397652,0.028191385805024685,-0.34047265307315067,9.809642691954812,0.0019221043148824842,0.0017335217953897356,-0.00021725777970190137,0.7245971578177017,0.4226563290617577,-0.8663076622617055
25825,2.008,0.9999966821872631,0.0006202101965247357,-0.0006175377559541797,0.0024227259230622106,0.05589567639966298,-0.356433783981641,9.752574655619505,0.00370567653857848,4.698279808308396e-05,0.0018147822223008555,0.7226658700556163,0.4313365717261416,-0.8695586468217452
25826,2.017,0.9999966791452528,0.000630808784734357,-0.000623753957248215,0.0024196507485326865,0.027496682209590728,-0.34664481086033955,9.781169639031035,0.005445207485976951,-0.002066347829059418,0.00020623510694836087,0.7202528999508067,0.43314206941215755,-0.8737916903441221
25827,2.025,0.9999966817046363,0.0006271164937080198,-0.0006146991057189769,0.0024218690364613727,0.026799534606206727,-0.35312052789995846,9.752686529170079,0.0019441637184232834,0.0019469423962224946,0.0016029680591925068,0.7278050909496584,0.42809581942622243,-0.8713640453127776
25828,2.033,0.9999966824940062,0.0006302983752682162,-0.0006132561291813838,0.0024210827869006165,0.05590218466262397,-0.3555342310869803,9.752607453326105,0.003683676251940492,-0.00016645077142929247,-5.515496286197551e-06,0.7189993808138775,0.4333143184283783,-0.8689202435283082
25829,2.042,0.9999967147752102,0.0006192224878791574,-0.0005974895970065434,0.002414541049460138,0.05646075781482994,-0.348600130207368,9.781107464960996,0.0001606141893015406,0.00363340790339756,-0.0004292059291875215,0.7146605705753043,0.4252052452507776,-0.8772136390284063
25830,2.050,0.9999967286329808,0.0006221399734219205,-0.000604080033897962,0.00240639824285331,0.026517850124583367,-0.3525827672018667,9.752706755534422,0.0036033753878334826,-0.0019831484774006807,0.00020914558227914736,0.7225129436455491,0.42768242178729277,-0.8831113866689111
25831,2.058,0.9999967608266503,0.0006260555886339432,-0.0005976573393270859,0.002393573962213881,0.05711737121685301,-0.3413677815300291,9.8096170513948,0.0037419856339275747,0.001436735605311463,-0.0020404093136217926,0.7224266423946332,0.43815102954883217,-0.8702893994726301
25832,2.067,0.9999967082861236,0.0006293282853548752,-0.0005930645790712289,0.0024157063629476868,0.05378610266922735,-0.376221177188079,9.787950486343753,0.003749700401227677,0.00047421827921945305,0.005455425841493231,0.7190700138012905,0.4261036878683801,-0.8794143586266561
25833,2.075,0.999996743745605,0.0006175688500152593,-0.0005935198743398135,0.002403922016569508,0.02644415807527017,-0.3518289383359194,9.752734178626232,-2.2003742471338018e-05,-0.0002135730719766222,-0.0018202910403037724,0.7227537752593456,0.4345399418640385,-0.8826189371968985
25834,2.083,0.9999967142188605,0.0006131035248068616,-0.0005976104534338,0.002416302401780332,0.05498816606857333,-0.36118034333048693,9.724157142172382,0.0018055380589536549,-0.0014727841372759426,0.0038525459080187867,0.7192802427188915,0.4287244360226663,-0.874375191990964
25835,2.092,0.9999967290197136,0.0006170527930754484,-0.0005900360526663291,0.002411027411846597,0.056373321398290176,-0.3473929583039863,9.7811509185942,0.003764051913271786,0.0016501574547439254,-0.0002201669105856396,0.719996091124814,0.4351628783684494,-0.871910366457842
25836,2.100,0.9999967155880707,0.0006278552169978846,-0.0005880793212186973,0.0024142853208595377,0.02712801661616532,-0.3443701662367082,9.7812510169969,0.005547575936375212,-3.618055203126389e-05,0.0018121348010133207,0.7243711644396221,0.43673015979053464,-0.8690046645803542
25837,2.108,0.9999967108495151,0.0006238380077044955,-0.0005865583973434075,0.0024176570349227168,0.05489845990089034,-0.3602791300303034,9.724191080559706,0.0018638709005541617,0.00013037732521598987,0.0018175684727435274,0.7163459077804136,0.4365665232251249,-0.8736945700754154
25838,2.117,0.9999966910991338,0.0006186180159958106,-0.0005913323606570397,0.002425990225452458,0.05380205251232182,-0.3749426102405736,9.78799945931389,0.0017834977305166467,-0.001686302220152639,0.0020323544900834258,0.7175036777136373,0.42785760316229154,-0.8643403243209301
25839,2.125,0.9999967039418141,0.0006145669562589738,-0.0005909641194083626,0.0024218122087433574,0.025847260122890327,-0.35734097015945115,9.724287711352728,0.001841860377051402,-8.330905761513918e-05,-2.72399163031651e-06,0.7160863165522301,0.4268758760825952,-0.8713998579138894
25840,2.133,0.999996746254961,0.0006177275991074359,-0.0005909143067758983,0.002403479225467332,0.058297234754198284,-0.32460018523862866,9.745881058990545,0.0036616956924579273,-0.00038031618925549166,-0.0018257247481797475,0.71932009973129,0.4373099417281288,-0.8802968454691003
25841,2.142,0.9999967447744684,0.0006147199251227358,-0.0005656358156375612,0.002410936748505357,0.05552360372761376,-0.35274267878156884,9.752710983543565,0.002127063654219431,0.00579417397746069,0.002993307694611526,0.7278046081008285,0.4329842052515425,-0.8712923072852153
25842,2.150,0.9999967225760321,0.000632758166518822,-0.0005725763404014019,0.002413837325027249,0.026892184272080254,-0.3429291680043149,9.781302296181321,0.007287069650531408,-0.0021499441218799393,0.00020414583842359236,0.7220076139907895,0.42508467093942315,-0.8805801068450125
25843,2.158,0.9999967233195999,0.0006360567040630463,-0.0005800713351115606,0.002410871041658054,0.053684512901114104,-0.3735072380895094,9.78805498348448,0.003603343067767788,-0.0019833042703927403,0.00020953208357371312,0.7215222032846633,0.4301998205318465,-0.8810082337693381
25844,2.167,0.999996745928599,0.0006323467634833817,-0.0005713418753782841,0.002404545330328965,0.02707024505863361,-0.3422601701456751,9.781325235499308,0.0019222815965721425,0.0017333375269323655,-0.00021763996492318397,0.7187975558269264,0.4245421788510895,-0.8752080026241303
25845,2.175,0.999996729140835,0.0006356791675683099,-0.0005776835611928689,0.0024091287494195333,0.023817259264040932,-0.37719975171520753,9.759666842720593,0.003625365205720184,-0.0017694613563488842,0.0020298415069743094,0.7246795956566597,0.43052993370868237,-0.8785556529268188
25846,2.183,0.9999967526249827,0.000631837460909884,-0.0005687523349841496,0.002402507376518564,0.08542212101507769,-0.3470996805735492,9.781170150494255,0.0019222996715036553,0.0017333176916477005,-0.0002176784038553406,0.7295770192392456,0.4302084329826576,-0.8807100248347393
25847,2.192,0.9999967845050899,0.0006357531273820163,-0.0005623316471725757,0.0023896821045760737,0.026942068681431747,-0.341577270447783,9.781349461256314,0.0037421736492427044,0.0014361018989969214,-0.0020406190574838333,0.7229308897969904,0.4292727005157945,-0.872659886419265
25848,2.200,0.9999967571925108,0.0006458337187082091,-0.0005838916731587045,0.00239323500411064,0.052344092134661804,-0.38581331525966217,9.731122864750759,0.005284451993876815,-0.0056999090948193455,0.0006370566550127128,0.719508612732176,0.424654140711633,-0.8720312921574211
25849,2.208,0.9999967610873095,0.0006501427298346853,-0.0005676290232926366,0.002394353067800323,0.027896693844828638,-0.3340438652569534,9.809864556070188,0.003866636255920741,0.0036805893769104128,0.001384702488346688,0.7273152365431333,0.4283484205457589,-0.8711319608379217
25850,2.217,0.9999967769477456,0.0006458621407306204,-0.0005658601983779531,0.002389300829094622,0.056225746739164396,-0.3432496264524107,9.78129804591574,0.0018418944288931664,-8.333572507983431e-05,-2.6793441713559543e-06,0.7197970676551856,0.43126189971485873,-0.878614353810598
25851,2.225,0.9999968002469849,0.0006414516847368787,-0.0005741795813355081,0.0023787293534834144,0.023189254417346077,-0.3824205595358089,9.731237632073087,0.0017394594207844698,-0.0021139674819494296,-0.001607818562917458,0.7251161466374829,0.4273810783216681,-0.870868317525196
25852,2.233,0.999996837028347,0.0006373858082675441,-0.0005662518920181924,0.002366227256153972,0.05634704795400717,-0.34295409412138683,9.7813077144371,0.0019002702984449909,0.001519309188762695,-0.002038056481639876,0.7119177049400401,0.4328349535417384,-0.8687066888436273
25853,2.242,0.9999968083537829,0.0006330770611690952,-0.0005711090607883588,0.002378304043422433,0.024612898055274498,-0.3685333153483348,9.788228262408866,0.0018055495371594786,-0.0014719050920984108,0.003852936658955216,0.7251367803017954,0.4311815476115429,-0.8739339113239195
25854,2.250,0.9999968183464126,0.000628094579562764,-0.0005771725470945756,0.002373955792108196,0.05577435725473954,-0.34945409157703816,9.752827940527478,0.001761485118391299,-0.0018999723567442468,0.00021245749697387234,0.7173354888070532,0.429169351106062,-0.8756254778603026
25855,2.258,0.9999968499301335,0.000632010446821943,-0.0005707523373908862,0.002361129893921134,0.05579587652036784,-0.3492300151618585,9.752835844018179,0.0037421733653788362,0.0014359070072318928,-0.002040808569491511,0.7160809651208833,0.43203408792907383,-0.8706047827153179
25856,2.267,0.9999968201971341,0.0006425908141027767,-0.0005753761863176781,0.0023697288687418022,0.02662443911192855,-0.34620958166366333,9.752934785839583,0.00548939833627574,-0.001638452108403389,0.0038475923316789755,0.7204797628295708,0.4227280687142625,-0.8712238718614879
25857,2.275,0.9999968397254948,0.0006388655134150562,-0.0005674725135202749,0.0023643952346756743,0.0557923540712288,-0.34855494753994115,9.75286001336808,0.0019223396550868198,0.0017332701027827678,-0.0002179314180865551,0.722220798589401,0.4193839670046109,-0.8759800729410985
25858,2.283,0.9999968443071374,0.0006426957989452367,-0.0005651271238471723,0.002361979934553212,0.05386388849381267,-0.369902348357216,9.788190893927625,0.0037058684241219517,4.7426174035516876e-05,0.0018148616385719866,0.7251163593892006,0.4351973281716936,-0.8708999265664453
25859,2.292,0.999996855359758,0.0006306437657091288,-0.0005719627958033764,0.002358901777763271,0.026609660959731496,-0.3455331506806009,9.752958813805037,-8.044298118483893e-05,-0.001816618480352111,0.00021527417994525038,0.7231558983622783,0.4318159366127814,-0.8698165680638041
25860,2.300,0.9999968374977114,0.0006335875120742471,-0.0005692525744166037,0.0023663290023649805,0.055855572775473226,-0.3480328954317292,9.752878295207195,0.0037058905939583897,4.742175827026322e-05,0.001814836804288656,0.7256380331715618,0.42354038682375467,-0.87585949326473
25861,2.308,0.9999968329168484,0.0006295705412473668,-0.0005677284389349704,0.002369700746219644,0.05654346869484995,-0.34100759133869996,9.781374635629152,0.0018639798141090464,0.00013080375558243313,0.0018175321033325508,0.7253878319294552,0.4326110298206515,-0.8749598742214878
25862,2.317,0.9999968420326112,0.0006253256110286436,-0.0005660294537256641,0.002367383226955519,0.026661629775208185,-0.34500971013214915,9.752977202553794,0.0018419185380281681,-8.339645062671755e-05,-2.6904475778982473e-06,0.7109513845735811,0.42740691567410133,-0.8702316740365237
25863,2.325,0.9999968598867012,0.0006285897952263344,-0.0005746788231363858,0.002356869928087559,0.05593353811466307,-0.34743646374316856,9.752899113995836,0.0035813096044749713,-0.002197617978584211,-0.001610269647188954,0.7180254291991601,0.43036922950205087,-0.8693114355673077
25864,2.333,0.9999968362238528,0.0006391533028692974,-0.0005792879276839865,0.0023629326772871893,0.05353168014925476,-0.37544143477588793,9.75974880892329,0.005489483634057251,-0.0016382790122465873,0.003847685767073369,0.7265987893549566,0.42631038668784493,-0.8735078238320129
25865,2.342,0.9999968264632281,0.0006428117571265927,-0.0005780929879258823,0.00236636113379672,0.02511225438852112,-0.3656174398209943,9.788336344012583,0.0037059552959354015,4.745376645345211e-05,0.0018147892261532045,0.7112399165784347,0.42741836817092876,-0.8768261879271226
25866,2.350,0.9999968549781458,0.0006389305411678194,-0.0005692709549422035,0.0023574842863768,0.05747073191431221,-0.3328602795069367,9.80990734897649,0.0019224249997579436,0.0017331695125033272,-0.0002181394594558318,0.720495527911367,0.4267983640252958,-0.8735661284892018
25867,2.358,0.9999968726546845,0.0006421945633653612,-0.0005779207859624027,0.002346971358834188,0.056790877416971315,-0.3394392365187099,9.781427754306517,0.0035812858300668135,-0.0021977752619051715,-0.0016101561328065379,0.7170569067189507,0.436434496416943,-0.870509247352972
25868,2.367,0.9999968712813626,0.0006376161847466988,-0.000575318076728683,0.002349442954925487,0.024441281435975775,-0.3717463344501003,9.759874541977306,0.0018640374063699176,0.00013093753146863768,0.001817496430269907,0.7236688592652966,0.4319307385193414,-0.8734816410415993
25869,2.375,0.9999968838749718,0.0006335651722362961,-0.0005749484964718297,0.0023452653894124346,0.05616864288052247,-0.345872182716317,9.752953362625915,0.001841937212132944,-8.342885557856474e-05,-2.7074066231301882e-06,0.715551582387102,0.4320054105306242,-0.8644998783150436
25870,2.383,0.9999968554247772,0.0006205764328208744,-0.0005857197626024675,0.0023581683163952736,0.05699857250727326,-0.33899739990446875,9.78144186879438,-0.00011677305124427568,-0.0032044194906959093,0.004071408141517544,0.7126595575567537,0.4310753581557941,-0.8701053722894884
25871,2.392,0.9999968526609723,0.0006245611818935197,-0.0005769902670637864,0.0023604393048275133,0.053786352022621255,-0.3740271148493914,9.759801712273278,0.003786530673659247,0.0018640468627771206,0.0015992415929807315,0.719536356565654,0.4445406372357655,-0.8761532611191035
25872,2.400,0.9999968469651128,0.0006346200581186668,-0.0005839573148388823,0.0023584552294393106,0.057050913117106465,-0.33847336029860825,9.781459712040116,0.005445293462079187,-0.002067003132820345,0.00020738729037208007,0.7227071564993733,0.4320972151307675,-0.8756926744008801
25873,2.408,0.9999968336280116,0.0006222751718384796,-0.0005971704873429881,0.002364084383198101,0.027391096980045007,-0.3424152202547331,9.753066615436582,-0.00013891900869279536,-0.0034187113279291964,0.0022513403036759634,0.7237069193096133,0.4329525954943148,-0.8791363145919726
25874,2.417,0.9999968409042257,0.0006178165797531675,-0.0005957082658363464,0.0023625443709441776,0.054149968256960695,-0.3733681146406483,9.759824933935016,0.0018419444067416166,-8.349193210610818e-05,-2.752821163831695e-06,0.7182867588073953,0.4266146625122476,-0.8718644230901915
25875,2.425,0.9999968413660082,0.0006211143773257238,-0.0006032030054032881,0.002359580698258577,0.056790514785683345,-0.3447755311645485,9.752988590926497,0.003603352809284926,-0.001983561910367948,0.00021008298316907653,0.7202475676345913,0.4314599860835125,-0.8729994551272383
25876,2.433,0.999996842430033,0.0006167322345860801,-0.0006005890066547833,0.002360945607361016,0.056862887137901004,-0.34455382670290824,9.752996003761494,0.0018641351207663766,0.0001309945034237091,0.0018174274427123086,0.7248627960777799,0.43011662838251435,-0.8695007966906145
25877,2.442,0.9999968276622793,0.0006280661465914689,-0.0005997234929977051,0.002364430169447032,0.054296389978069334,-0.3726242385642038,9.759852550273319,0.005548044319067088,-3.602187445933337e-05,0.0018119054979505167,0.7205304004078241,0.43516571841446594,-0.8787472202848601
25879,2.458,0.999996802356551,0.0006268552350798365,-0.00060331032995094,0.0023745201271391484,0.041398853885129566,-0.3532598057741448,9.77073223337863,0.0027448438607008533,-0.0008190227730407074,0.0019238854385261975,0.7263108949839384,0.4289828095469974,-0.867008044754491
25881,2.475,0.9999968535876917,0.000610850032616552,-0.0005940598831137501,0.002359400307386301,0.04104864960246256,-0.3563653998014403,9.756500517125424,0.0009501718434424769,0.0007592115492355559,-0.0010193318727627178,0.7231724170113344,0.43905808461724566,-0.8722707840160638
25882,2.483,0.9999968250028195,0.000613204224531968,-0.0005990582379791665,0.002369618975124001,0.025191497632575277,-0.3689996955206206,9.759976865166603,0.003625539035832291,-0.0017690328012520424,0.0020303994162417004,0.7266125644534023,0.42892536243733664,-0.8755544237830732
25883,2.492,0.999996825474709,0.0006165016059200661,-0.0006065526940966442,0.002366655890408435,0.05778086183295584,-0.336174803173901,9.781534694764293,0.003603336316341772,-0.001983660443501482,0.00021022501499167034,0.7236375609685534,0.42476610257217645,-0.8688315768091084
25884,2.500,0.9999968214571708,0.0006122816089716683,-0.0006035823064956077,0.0023702057266406,0.05458929051087988,-0.3711364794721668,9.759907603669298,0.0018641948272545307,0.0001311001287461581,0.0018173963375857165,0.7229398154280514,0.42531720711132104,-0.8739859891810038
25885,2.508,0.9999968239250611,0.000623581022883276,-0.0006038728799521455,0.002366141171574687,0.05785586948359395,-0.3356516967332306,9.78155221606547,0.005525908600258306,-0.0002507052074598234,-8.326684953003803e-06,0.7170719953153308,0.43073663252814726,-0.8727509968935624
25886,2.517,0.9999968233592867,0.0006113030440297224,-0.0006084932661939963,0.00236839943190064,0.025487201468003436,-0.367961354944571,9.760015298744882,-5.83719271195541e-05,-0.0016018349582648886,0.0020360094059501785,0.7236591221002632,0.4324703905616585,-0.8720349666995805
25887,2.525,0.9999968551435076,0.0006152191219438497,-0.0006020767612583646,0.002355570440607784,0.028052996508136835,-0.33944245958054,9.753168649676686,0.003742317933056343,0.0014346664146939574,-0.0020415819567026886,0.7145881406198096,0.4248522270802868,-0.8664525440022957
25888,2.533,0.9999968523105996,0.0006184405524488909,-0.0005996705686256819,0.002356543100827467,0.025434077242535026,-0.3675086092832842,9.760032496052945,0.003706187714858673,4.7600402404757524e-05,0.0018146201997108152,0.7131609652115253,0.4310064585493058,-0.8720539510158141
25889,2.542,0.9999968332705104,0.000628759988814145,-0.0006225631583674858,0.0023559552078716624,0.02892589390436063,-0.33195634863133294,9.781675034969073,0.005284093737051741,-0.005700363009843816,0.0006393832093519744,0.7222127424590247,0.4269992904399661,-0.8747831540153741
25890,2.550,0.9999968433003168,0.0006247429266371454,-0.0006125890408727459,0.002355381146422794,0.0549856902303233,-0.36950320197544656,9.75996734980033,0.001944878177966035,0.001947750796817114,0.001601407891626334,0.7245970807358578,0.429252635568156,-0.8662962100242834
25892,2.567,0.9999968731767526,0.0006239541877472207,-0.0006208707033150354,0.0023406916627741366,0.04133723718893182,-0.35710268442008375,9.742353443540082,0.00271153235836924,-0.0011410767583877222,-0.0008062908685342349,0.7273321029924635,0.43705450056257583,-0.8736378503245872
25893,2.575,0.999996852746697,0.000619426323094414,-0.0006084860539507423,0.002353837813782659,0.025825096571311698,-0.3662495486771494,9.760078797023757,0.0019671715897627115,0.002162661378591719,0.003421499617059169,0.7245956124529185,0.42999321402514334,-0.8660780636492383
25894,2.583,0.9999968530786565,0.0006227234615909887,-0.0006159801884933101,0.00235087572668645,0.05825570831070209,-0.3334884534852829,9.781623834261993,0.0036033420704797113,-0.001983753613083539,0.0002104312714654334,0.7090633343870222,0.4312188374608035,-0.8799065705783056
25895,2.592,0.9999968171700451,0.0006490052344432225,-0.0006137422324793128,0.002359610658087308,0.05506283395038551,-0.368155738774106,9.760017837621259,0.009254566019489048,1.1721759396683113e-05,0.003626290503288828,0.7270898419473085,0.4380218427866666,-0.873917925695601
25898,2.617,0.9999968256932047,0.0006442339741146376,-0.0006193379111437422,0.0023558409653051987,0.03738896030428401,-0.34680189855676186,9.755527999155955,0.002436547737992616,-0.000645373088876701,0.0006750232216466807,0.7219998088423942,0.4268356538745564,-0.8794204769239131
25899,2.625,0.9999968226436841,0.0006467245346354919,-0.0006245492208641935,0.0023550771077986937,0.05670545688093848,-0.3533874846042282,9.81702193952734,0.003603337418088261,-0.0019838262843987595,0.00021055468341828068,0.7214738072930587,0.43411802408705935,-0.8738179233379153
25900,2.633,0.9999968227681816,0.0006500216151825492,-0.0006320433341451078,0.0023521153598033413,0.026982021590194034,-0.3572641427084236,9.788639814894749,0.0036033458088132646,-0.0019838267736538543,0.000210557880970954,0.7187911418796266,0.4321488898356337,-0.8742550668406538
25901,2.642,0.9999968106914396,0.0006451188540830308,-0.0006370094410028193,0.002357254247140078,0.057446590943224414,-0.3449903701006724,9.72473077255291,0.0017836818902505407,-0.0016850792125118236,0.00203351871022962,0.7199883630582624,0.43031755479718464,-0.8707621887741646
25902,2.650,0.9999967943983261,0.0006334612538040114,-0.0006339913392527635,0.002368116317685548,0.029023073776475693,-0.3354328249423465,9.75330453413397,4.472084843834361e-05,0.000430192280420771,0.0036402532555478264,0.7146537508610182,0.43110403555424365,-0.8762004174547897
25903,2.658,0.9999968171400364,0.0006362961086735604,-0.0006417564737704483,0.0023556285120962363,0.026530110286192718,-0.36365154097317026,9.76017405103647,0.003580952210073287,-0.002199007232361526,-0.0016095676630166799,0.7207487625376453,0.4235748366269988,-0.8749164248123147
25904,2.667,0.9999967777074746,0.0006473384599074904,-0.0006472644204690226,0.0023678210143475193,0.058420868560157276,-0.3375746904581108,9.753230855624103,0.005490112757717019,-0.0016373343833713636,0.0038479545459514544,0.7273175552116261,0.43810796729477697,-0.8714764510672932
25905,2.675,0.9999968299390548,0.0006431154188293456,-0.000640346956490999,0.002348716708127227,0.05914512865947073,-0.33044487746330814,9.781721788176453,0.0018779621522762202,0.0013024291662594198,-0.0038594074304293276,0.7192475729575021,0.4296286510450634,-0.8695213659132087
25906,2.683,0.9999968129292982,0.0006464472184430134,-0.0006466822577763648,0.0023533039112188536,0.05589408979164787,-0.3654163350175508,9.76011605816718,0.003625730038877769,-0.0017686992009248769,0.0020307369972379446,0.7295899636885875,0.43624786254511666,-0.8826332132238317
25907,2.692,0.9999967984012506,0.0006496425474833767,-0.0006442762657208493,0.0023592498602073944,0.05666917505171639,-0.35828715240228387,9.788607100236172,0.0037064515739721627,4.778082829357932e-05,0.0018143908050305881,0.7222268073910324,0.4308342095330851,-0.8768728152451059
25908,2.700,0.9999967940306741,0.0006456258212518806,-0.0006427467508589235,0.002362619793217206,0.05850816998415852,-0.33652861420259783,9.753266481681138,0.0018644286280961936,0.00013150737950532365,0.001817252418129964,0.7165780838602614,0.43467490103099854,-0.871916146827977
25909,2.708,0.9999967779153013,0.0006484400854840579,-0.0006481080853453355,0.00236720095922971,0.05600613988680166,-0.3646709744683374,9.760143293453206,0.003625725348535984,-0.0017687083073563204,0.002030789749409648,0.7322167560258441,0.43142553628026836,-0.873894870610618
25910,2.717,0.9999967809021538,0.0006447506058160597,-0.0006390448499247134,0.0023694099827198806,0.02866969203955836,-0.3402558363729048,9.72489260403155,0.0019452044119501182,0.001947988987683945,0.0016008197186202187,0.716130559298315,0.44007994159221914,-0.877973110535473
25911,2.725,0.9999967757377571,0.0006554099876172746,-0.0006381362917489708,0.002368909857211535,0.027457373609794895,-0.35464794577078046,9.78873362890784,0.00552610869622,-0.00025130804756750327,-8.552541832330636e-06,0.7246323398841698,0.4461682058135279,-0.8715347476283938
25912,2.733,0.9999967573349331,0.0006357493643720224,-0.0006423185379552668,0.0023808757340383017,0.05854349750287252,-0.3356303794140082,9.75329722119459,-0.001877985871459857,-0.001302030161252445,0.0038595305225363695,0.7229196843490178,0.43055293101509895,-0.870995065702201
25913,2.742,0.9999967731880808,0.0006383962235382805,-0.0006420346002565378,0.002373574363813784,0.056756500118845636,-0.35708692683601834,9.788650451832265,0.003661651402874747,-0.0003829153147922912,-0.0018258250180770155,0.718290622840671,0.42903732429788005,-0.8724385119320303
25914,2.750,0.9999967440636865,0.0006340869609450291,-0.0006468786134770729,0.0023856537492529446,0.027653322475415597,-0.35420429979637663,9.788749139908399,0.0018061129898399213,-0.0014695562129791579,0.003853831564803804,0.7168727208637216,0.43269999437477835,-0.8794176952416932
25915,2.758,0.9999967471388859,0.0006290471661779905,-0.0006607968333472618,0.0023818813690044275,0.05632136762363715,-0.3635596044508837,9.760182940597927,0.0016804329259005628,-0.003716731324117953,0.0004301407268046137,0.7248993687240256,0.43871935898959885,-0.8749344838842549
25916,2.767,0.9999967477582148,0.0006173545131860999,-0.0006589356147857255,0.002385193965942525,0.057173661889208006,-0.3566542922215539,9.788663796578666,2.2471214847099654e-05,0.00021537090226190857,0.0018200983068452632,0.7173355467737655,0.4294133397747875,-0.8756340901160369
25917,2.775,0.9999967384537078,0.0006197834412748053,-0.0006729238665904595,0.0023845594778098738,0.027427133101703065,-0.3606860771767501,9.76028161004908,0.0035224561566710956,-0.0038005769841595715,0.00042724954759837066,0.7190656669191847,0.42856941190806774,-0.8787685317572551
25918,2.783,0.9999967312381932,0.0006314455726453149,-0.000664522708803286,0.002386880597629244,0.030071751779439115,-0.33195103966967004,9.753420480556825,0.0056294555386958885,0.0017803423181571205,0.0015947772584810607,0.7205230781082589,0.4320283155242792,-0.8776593283913227
25919,2.792,0.9999967815270825,0.0006271007574338837,-0.0006656521983132294,0.0023665559930933387,0.05663347216457904,-0.3626730377595025,9.760214117879073,0.0017970710018450388,-0.0005147286261646734,-0.003643086435761615,0.7207317807762081,0.43514565346682743,-0.8723934031248515
25920,2.800,0.99999677621483,0.0006380729822904629,-0.0006734779264109346,0.002363651899075627,0.06002260172434589,-0.327175135611215,9.781826354955701,0.005445363141647164,-0.0020679090441857602,0.0002078813576662907,0.7229472536610412,0.42894258733895874,-0.8750911055860097
25922,2.817,0.999996784473223,0.0006295397732431563,-0.0006704110435947649,0.002363317989807208,0.04351747393498601,-0.34649426257948707,9.756845370832396,0.0018533106871702707,2.3925018652718817e-05,0.0009071212359752152,0.7183494515978568,0.42750733272505553,-0.8811788437742835
25924,2.833,0.9999967632650255,0.0006515446442331665,-0.0006843001193070784,0.0023623467986193204,0.042743867022362596,-0.356660312024121,9.774544194722202,0.005456636841951409,-0.0019601874814414383,0.0011179681325169382,0.7226914493842896,0.4282709084884596,-0.8733590300289003
25925,2.842,0.9999967617227988,0.0006472619542169616,-0.0006815272817270279,0.0023649770492211748,0.029796810101996044,-0.3367142818357115,9.725012482539212,0.001864610766696755,0.00013175098023408398,0.0018171308429689582,0.7197931456551975,0.42859524926050085,-0.878031652713025
25926,2.850,0.9999967389768325,0.0006582695646205788,-0.0006881926876173803,0.002369621848820267,0.08636183927419123,-0.36325889179370596,9.760194407391866,0.005467925296449203,-0.001852412238843323,0.0020280335621537704,0.7261052836668731,0.4319565758717745,-0.8727332595565674
25927,2.858,0.9999967523090284,0.0006538913925220848,-0.0006866632370966347,0.0023656481229861314,0.03065289966892708,-0.329275816221631,9.753509352674845,0.0018420748146198143,-8.388467236684171e-05,-2.94822081782742e-06,0.7224185467913585,0.4179171949462418,-0.8690866159621884
25928,2.867,0.9999967235734263,0.0006582768548660367,-0.0006680751965807381,0.00238184582353489,0.027915285358660814,-0.3574034118340507,9.760400982707795,0.003913543869258652,0.004112089875103273,0.005020637304004711,0.7214618482778258,0.4322264018929331,-0.8720411432963056
25929,2.875,0.9999967244885877,0.0006690750681405856,-0.0006745870720502358,0.0023766116493423406,0.05514774141085511,-0.3812002888481119,9.795683164821076,0.005445347830589472,-0.002068183591324568,0.00020812063953158278,0.7273465928065886,0.4357570451616492,-0.8757906373261468
25930,2.883,0.9999967544844764,0.0006649880367195828,-0.0006753774327233091,0.0023648840877663994,0.031206465435959445,-0.32151892503241014,9.782016659177794,0.001819528715136679,-0.0002996704678626826,-0.0018229823325802946,0.7123723199347027,0.4295913611958028,-0.8637031680067316
25931,2.892,0.9999967420893898,0.0006606872832491879,-0.0006639177063353874,0.002374556000574704,0.0278448833114947,-0.356573917248285,9.760431521999365,0.001968074765017199,0.0021640127062145216,0.0034202702151225964,0.7170695804498628,0.434413687460651,-0.872392214445081
25932,2.900,0.9999967419256842,0.0006639835191779668,-0.000671412139875555,0.0023715964333203914,0.05772334778601764,-0.3521625880871972,9.788823196391933,0.003603268412242119,-0.001984279819153334,0.00021111242052023092,0.7168706149469468,0.4307566974757857,-0.879104814053571
25933,2.908,0.9999967406910754,0.0006595058438491736,-0.0006690918500333525,0.002374020927649856,0.031188940999749587,-0.32091554611119316,9.782036528520614,0.0018646496370875038,0.0001318607478821822,0.0018171304100375592,0.7244195024645145,0.4325679675665964,-0.8761863627560428
25934,2.917,0.99999676727874,0.0006710984798210738,-0.0006630129647527631,0.0023612438901569805,0.028560575300939094,-0.3489715272213307,9.788934482287125,0.005584634058221694,0.001348721289860922,-0.0020457752496422193,0.7254145897075063,0.42758484478235487,-0.8789353425250165
25935,2.925,0.999996749166041,0.0006741797985676078,-0.0006681816693710218,0.0023665739386757156,0.055184703259222964,-0.37961986861759706,9.795744330731,0.0036258382276547815,-0.0017684138819031273,0.002031248981076995,0.713893776263753,0.43271437923038397,-0.8721093071884676
25936,2.933,0.9999967544308372,0.0006697999828935035,-0.0006753441555521825,0.0023635579212670146,0.02872409405260689,-0.3483764014292397,9.788955200969134,0.0017611819902290267,-0.0019003442769157945,0.00021412558709602413,0.7131947943071606,0.43498201690141775,-0.8770800222082551
25937,2.942,0.999996753048071,0.0006801985801039642,-0.0006825112405316604,0.0023591103436751528,0.059912044383210954,-0.32924220849781755,9.75350664677353,0.005445391180759635,-0.002068257204589022,0.00020827088349716959,0.7265909650914293,0.434901664798102,-0.8723453539292254
25938,2.950,0.9999967620119576,0.0006688342149388494,-0.0006731136100699346,0.002361259083836613,0.025598537386508854,-0.38306955792526515,9.767389608481245,0.00010351111955985929,0.002032322223219689,0.0016029376562876638,0.723654794333289,0.4280958194262225,-0.8713919798118676
25939,2.958,0.9999967829293094,0.000663919110238845,-0.0006799941869172816,0.0023517972602077257,0.05806286449596416,-0.3504464702781361,9.788882776585492,0.001738593696799799,-0.0021162927071939324,-0.0016058630172323853,0.720712267594561,0.4291406737076126,-0.8694942821667672
25940,2.967,0.999996773246522,0.0006675787294531548,-0.0006787934360751018,0.002355222846273447,0.028254382255910492,-0.35441440890362336,9.76050899855315,0.003706812814855852,4.803626983692639e-05,0.0018141536702095875,0.7197419481462701,0.42764229189201564,-0.8704251140246685
25941,2.975,0.9999967659861527,0.0006628518997735428,-0.0006835516232758074,0.0023582624480032164,0.057490448110260564,-0.3568572602438301,9.760423477217786,0.0017837830426503506,-0.0016843694121231336,0.002034234019549033,0.7200002449916514,0.4388054834977092,-0.8725275165783521
25942,2.983,0.9999967522912766,0.0006591992192619583,-0.0006733234936100621,0.002368015785823867,0.031575025656370034,-0.31882511252384826,9.782103646533479,0.0019682855859510223,0.002164375158886795,0.003419956968335053,0.7251203005043201,0.4310236834509279,-0.8714854676457061
25943,2.992,0.9999967670138643,0.0006617732884985416,-0.0006806988758123994,0.002358954635999505,0.026434366542191282,-0.3753152705575832,9.795898546922988,0.0035806512127684676,-0.002200410224920622,-0.0016087219418837566,0.7224306605915966,0.42738107832166816,-0.870886392789313
25944,3.000,0.9999967721111253,0.0006573930563749724,-0.000687861026076001,0.002355939071524972,0.05691223579342408,-0.36312073919473103,9.731970423505526,0.001761162590284277,-0.0019003723525188878,0.0002142516336347251,0.7231374285814527,0.4302027528906247,-0.8670724677089372
25945,3.008,0.9999967652547397,0.0006606292420855614,-0.0006852415237220913,0.002358705813797358,0.031097413169421006,-0.3250168873283524,9.753650795248404,0.00370686978226286,4.804060856546975e-05,0.0018141068882093709,0.7183390767989881,0.42536310941139266,-0.8796374346191875
25946,3.017,0.9999967780270681,0.0006565772120812159,-0.0006848704180502439,0.0023545263553508226,0.0887280672236266,-0.336984248129204,9.7249970459972,0.0018421195536717973,-8.401839014265346e-05,-2.9558244381914503e-06,0.723140210362326,0.4211493347953499,-0.8674857636735122
25947,3.025,0.9999967737367808,0.000652248477964179,-0.000689783019684213,0.0023561170045812486,0.028595372786977203,-0.35300193708744265,9.76055919129963,0.001783794810845455,-0.0016842902291109014,0.002034317973401168,0.7178029902843452,0.4317211996538601,-0.872536533156765
25948,3.033,0.9999967771519116,0.0006485605641794614,-0.0006807162730838547,0.0023583215091889436,0.05590258185129114,-0.3770158207517815,9.79584082949993,0.0019457549696723752,0.0019484303641116591,0.0015997837158403358,0.7263533987286539,0.4348672149948578,-0.8733229297040459
25949,3.042,0.9999967786602749,0.0006592901619270487,-0.0006798129252599252,0.002354964955725421,0.03179752018071478,-0.31732934759825776,9.782151562973308,0.0055263751928015074,-0.00025214019057166634,-8.84972897919868e-06,0.7251199527040463,0.42955975143857517,-0.8714337941113004
25950,3.050,0.9999967573376821,0.0006553095101893698,-0.0006771162190946414,0.002365881905999357,0.05767369356291887,-0.35491413356829404,9.760493246357443,0.0018874194055503758,0.0003482741870126658,0.003637076825409325,0.7170883012126693,0.430162530682586,-0.8751736038045729
25951,3.058,0.9999967765969812,0.0006582036353960968,-0.0006846536195369762,0.0023547426703439526,0.06103657550645257,-0.3194735123317111,9.782074643097557,0.003580592696918501,-0.002200674676859527,-0.0016085620910861005,0.7205017679585299,0.4184596870345753,-0.8744932275054756
25952,3.067,0.9999967366956368,0.000669246917509336,-0.0006901544175500801,0.0023669375828389762,0.05645954383338888,-0.36805023946417137,9.70356827427114,0.005490725647139332,-0.0016361329956977209,0.0038485079170859702,0.7114523284946545,0.4253861067178094,-0.872111354716975
25953,3.075,0.9999967938518727,0.0006508958946674516,-0.0006656877490607469,0.0023548843561182614,0.029279904734367163,-0.34463359553204115,9.789086040268923,-0.0015990350200271897,0.005533116234348264,-0.0006492552810611006,0.7202473357677422,0.4304840314086107,-0.8729650061043013
25954,3.083,0.9999967541328441,0.0006619392258518231,-0.0006711884732925192,0.002367079692603631,0.05901007796427112,-0.3402806822894675,9.817471408706234,0.0054906549273301495,-0.0016361445857618405,0.0038486287736592835,0.7238613331177512,0.4290258718010526,-0.8658045611015398
25955,3.092,0.9999967808073953,0.00066504609609807,-0.000670967468524259,0.002354971590722459,0.05435960266530431,-0.3888580606402309,9.738969760199632,0.003661622895708066,-0.0003845072275858314,-0.0018258712273592995,0.7197658273251547,0.4243412524364193,-0.8739729018338414
25956,3.100,0.9999967765592078,0.0006610299344917218,-0.000669432901022994,0.0023583405629726334,3.1354466492799635e-05,-0.34120701033163486,9.789206024173264,0.0018648006258512922,0.00013219609667321686,0.0018170628111215284,0.7251507484155101,0.4276881941920873,-0.8760091880238705
25957,3.108,0.9999967933044861,0.0006568628370084253,-0.0006679482185556895,0.0023528189765577977,0.05765718858947635,-0.35326206036136143,9.760553277067133,0.0018421439226313826,-8.411787979500431e-05,-2.933181999248153e-06,0.7212401629302714,0.4367502247381731,-0.8753782002103087
25958,3.117,0.9999967930536086,0.0006601584397719509,-0.0006754425176515104,0.0023498618552289245,0.02928570013046287,-0.3435037240572377,9.789125735336395,0.0036032323168831613,-0.0019845659675121127,0.00021162746004428352,0.7219510841656472,0.4224496302422929,-0.8721813329397723
25959,3.125,0.9999968229849923,0.000656409472152161,-0.0006588837668672468,0.002342865491027151,0.05911633824846283,-0.3390774012279948,9.817512401754174,0.0020042713846614396,0.0035485331964662465,-0.0004379842457319372,0.716845325451835,0.435042304057095,-0.8753474921250873
25960,3.133,0.9999967982756778,0.0006594120868596168,-0.0006727472069604535,0.0023486219978977995,0.025928578138928658,-0.37827205499970684,9.767575712922959,0.0035448296935439304,-0.0035845127389871204,0.002249225065475447,0.7202857436123329,0.4329698203959369,-0.8786713531890802
25961,3.142,0.999996818329443,0.0006464805830644136,-0.0006874554818149559,0.002339401378075536,0.061270915687193984,-0.3172273783172131,9.782146276536546,-0.0001848210622193884,-0.003849039113716383,-0.001384861601334083,0.7202691669965644,0.4254836837227472,-0.8762085249810861
25962,3.150,0.9999967941010697,0.0006581817769273219,-0.0006778892140238143,0.0023492659588133734,0.02959572995729861,-0.34268913328183626,9.789153353808873,0.005652936635441129,0.001996742277028808,0.0034134998868020246,0.7217142713701319,0.42558703313247964,-0.8732708680391386
25963,3.158,0.9999968230890105,0.0006616692366205913,-0.0006779643762997725,0.0023358874142993123,0.026233832690210093,-0.37753416873441376,9.767603445972393,0.003661621605345525,-0.0003847383462973036,-0.0018258860444388967,0.7199943521234444,0.42784321830668587,-0.8716519987858133
25964,3.167,0.9999968058321251,0.0006650007248253858,-0.000684294600065986,0.002340478686838798,0.08724403733908352,-0.3542250086403289,9.760518601573786,0.003625951698480315,-0.0017681193877752844,0.002031708293469807,0.7146420428277662,0.4233480728598954,-0.874460926417805
25965,3.175,0.9999968228836319,0.0006614801046190372,-0.0006667684692713158,0.0023392491364725857,0.029528920953916304,-0.3417820292437603,9.789185267997293,0.00202704778783814,0.0037649586621728483,0.001381691868196549,0.7182988917227651,0.42923825071255034,-0.8736670398990041
25966,3.183,0.9999967887214094,0.0006648475563286921,-0.0006719344728012519,0.00235138866638242,0.031285380319554044,-0.3200699475283332,9.753813783147637,0.0036486113299146524,-0.0015516154891927927,0.0038517610544769538,0.7163573642103669,0.4294219522255986,-0.8753966797971043
25967,3.192,0.9999967749300955,0.0006678476240161954,-0.0006773991379136437,0.002354833193286319,0.055436643109405166,-0.37915463628064777,9.767550399286575,0.003625918163449091,-0.0017681518096150837,0.0020317925904299833,0.723161346611918,0.4339859972788774,-0.8706260277921564
25968,3.200,0.9999967800599083,0.0006634668319336573,-0.0006845606955665972,0.002351820195753166,0.03228002576707022,-0.31268241233527966,9.782299621960483,0.001761032635592841,-0.0019005065241354175,0.00021477843731063456,0.7180733232268031,0.43817970694728176,-0.8764271679894807
25969,3.208,0.9999967838703175,0.0006583519149345472,-0.0006906241365562968,0.0023498638427978387,0.05573641872861146,-0.37879267464556143,9.767562736853474,0.0017610360030923368,-0.001900506723434121,0.00021477971932224571,0.7190328041425269,0.43558195609941214,-0.8738860289306092
25970,3.217,0.9999967988737902,0.0006623054641688509,-0.0006830532355648246,0.002344574998156983,0.06089728152559098,-0.3218616498463303,9.753746889460837,0.0037654846204221827,0.0016478705687187037,-0.00022372001534848627,0.7231939195550143,0.42575350974390574,-0.8754654693401309
25971,3.225,0.9999967792569187,0.0006579313406221491,-0.0006792819109906143,0.0023552448335852423,0.0589576259959195,-0.34310986362303153,9.789137329512753,0.0018876590790701195,0.00034902525106511264,0.0036369639111194668,0.7109241630618316,0.43048119136259433,-0.8661873076871208
25972,3.233,0.9999967789222249,0.0006612266392626705,-0.0006867765651470649,0.002352288769746656,0.02654611276535849,-0.3754421070693814,9.76768323965478,0.00360319315617984,-0.0019847658343993325,0.0002118815282415518,0.7198073844873418,0.4331621343597961,-0.8801471507099597
25973,3.242,0.9999967889869863,0.0006643468590643371,-0.0006859134351491296,0.002347377627790179,0.059106375968847075,-0.3425896524751897,9.78915465237266,0.0036843632193128383,-0.0001684810890379952,-5.946402892203135e-06,0.7170427449686503,0.42527130481124936,-0.8684052015934594
25974,3.250,0.9999967924375724,0.0006606602578203584,-0.0006768445888583277,0.0023495795355421316,0.02985705436755695,-0.3396863752683813,9.789257215979534,0.00194610796338182,0.001948728088002003,0.0015991262067365664,0.7224206335930018,0.426700787020358,-0.8693966571686227
25975,3.258,0.9999967800776319,0.0006636949597536173,-0.0006819243132540394,0.002352514102009231,0.056442155803824404,-0.3704860681383992,9.796086869027729,0.003625944477615959,-0.0017680843029304646,0.002031917248484811,0.7185682583462449,0.4247086554625157,-0.8774141063659247
25976,3.267,0.9999967703971229,0.0006673555841806567,-0.0006807212753144296,0.0023559393866642814,0.06021557591759116,-0.3272429025471648,9.725327410242226,0.0037071436920019228,4.819071268481984e-05,0.0018140199198610795,0.7212297301646903,0.43436201275578473,-0.8738281787994784
25977,3.275,0.999996807909147,0.0006552838875855882,-0.0006802198470266301,0.0023435177626788452,0.02991614669255353,-0.33901064106237827,9.78928045992056,-2.276730079253853e-05,-0.0002167566267212684,-0.0018199498265047518,0.7226701010042974,0.4283828703490031,-0.8701872491796775
25978,3.283,0.9999967774513402,0.0006659623012049726,-0.0006944152575341523,0.002349333649993287,0.05522502533814504,-0.38357942769975273,9.739174224872169,0.005386970533705882,-0.003668595738100083,0.002246913723818547,0.7167860520760824,0.42778009110499227,-0.8665411022186478
25979,3.292,0.9999967753588123,0.0006622088269112316,-0.0006753745309219034,0.002356824280740128,0.059227844657310645,-0.3411648749225844,9.789203677332518,0.0020501983910590628,0.003981840815014948,0.003200958243990134,0.7136413722865786,0.43251345281571363,-0.8708824224273225
25980,3.300,0.9999967711016958,0.000658193103048584,-0.0006738378160177811,0.002360192920156094,0.029155782039457807,-0.34521197708958273,9.760836153721613,0.0018649711963743684,0.0001325007554418525,0.0018169870217763931,0.7163023415197446,0.4331306169153301,-0.8672218245409555
25981,3.308,0.999996805235254,0.0006614330008589102,-0.0006664519234485447,0.002346884638079421,0.026514020931741978,-0.37333482292456244,9.767764097183637,0.003742866704740133,0.0014307839523175637,-0.0020438529639153803,0.7192941337507622,0.4318273891096089,-0.876439016453493
25982,3.317,0.9999967839779671,0.0006574534513343776,-0.0006637493102658991,0.0023578009958317285,0.05891458257369328,-0.3405483545859198,9.78922703416299,0.0018877289125098459,0.00034939932308328405,0.0036369388201345767,0.7224718890686413,0.4278977330575686,-0.8770118081127135
25983,3.325,0.9999967685590593,0.0006604954118043683,-0.0006691147866963394,0.002361970078850716,0.05824154850621176,-0.3472086371895872,9.760767019059385,0.003625912843483123,-0.0017680634347668105,0.002032104896341662,0.723446420350482,0.4332827086711506,-0.8767067386310567
25984,3.333,0.9999967737349829,0.0006561137959879745,-0.0006762761142497894,0.0023589584418131824,0.05580796716884987,-0.3753404666160164,9.767695596302511,0.001760932918555426,-0.0019006056961728775,0.00021512029624356057,0.7177373411915561,0.41838510733605416,-0.8627828874302246
25985,3.342,0.9999968024820025,0.0006594362939956053,-0.000676149449593085,0.0023458455761729614,0.05920639279441873,-0.3398841092602783,9.789248359149184,0.003661617270711889,-0.00038562073034026346,-0.0018258588545700836,0.7204869691957116,0.4253774942669983,-0.8722945392435566
25986,3.350,0.9999968036126909,0.0006477441550759931,-0.000674278363412185,0.0023491574233083894,0.02859193595471051,-0.3508276263313316,9.732413449465213,2.2798046311950478e-05,0.00021693709476927568,0.0018199312205285406,0.7168020681398594,0.4259860459158037,-0.8689206478509869
25987,3.358,0.9999968325052471,0.0006510982648009575,-0.0006742989149812645,0.0023358877318697974,0.05591728196068401,-0.37481949502866047,9.767714976631577,0.0036616227673335632,-0.00038564907091723346,-0.0018258529308143438,0.7234440825668579,0.43036345709725615,-0.8763594084199973
25988,3.367,0.9999968451389573,0.0006470462726649142,-0.0006739273614313715,0.0023317086364398856,0.030067765186243475,-0.33668161412986863,9.789360374182642,0.001842213589829216,-8.43421689716129e-05,-2.9615593642974955e-06,0.7126752258202567,0.4278173809542528,-0.8724332443874216
25989,3.375,0.9999968475300299,0.0006500214613141079,-0.0006805119205034491,0.0023279402116444456,0.056023155836624906,-0.3743734967426022,9.76773147428279,0.003603176864286803,-0.001984927069215052,0.0002122326199343991,0.7280761194926639,0.4374821907443495,-0.8753580272143044
25990,3.383,0.9999968471280448,0.0006533162859059938,-0.0006880065564770492,0.0023249857589828326,0.030313206988104736,-0.3361656410972109,9.789377349664653,0.0036031853348594597,-0.001984927571163119,0.00021223584316888727,0.7188283515383903,0.42267062160460167,-0.8797833965367006
25991,3.392,0.9999968465098051,0.0006570198737121221,-0.0006782003952976005,0.0023270882138198405,0.059489718689221545,-0.3385416560795251,9.789293159601618,0.0037885293237593827,0.0018645772991980128,0.0015957371302087503,0.7246129228994979,0.4267266243727911,-0.8686499188894196
25992,3.400,0.9999968514991218,0.0006526381485239736,-0.0006853611241711869,0.002324077326697269,0.026286195305642843,-0.377766568229669,9.739390334059008,0.001760957648213176,-0.0019005903664764073,0.0002152690299800266,0.7182977515036504,0.41751818216291764,-0.8734976347660063
25993,3.408,0.9999968772963929,0.0006488866404105398,-0.0006762140944811368,0.0023166955108382646,0.032176266024553236,-0.3140290233411406,9.754007244119267,0.0019234933506211756,0.0017318698830090758,-0.00022123498088621573,0.7285826275968014,0.4381194197916045,-0.8780643921345768
25994,3.417,0.999996851009779,0.0006525842949765564,-0.0006738428727934463,0.0023276683714617066,0.05868488646303263,-0.3448264206833736,9.760848812406223,0.0037301013088291116,0.0002654624024711602,0.0036338919988728445,0.728826588791745,0.43738745378542804,-0.8780369121615451
25995,3.425,0.9999968502905496,0.0006631730071771629,-0.0006728080702878748,0.002325282744950698,0.05609893336458663,-0.37279930960985386,9.767791247501787,0.005526695959183664,-0.0002531608828582838,-8.88822416453341e-06,0.7226568476062625,0.42796379261804046,-0.8682181595302256
25996,3.433,0.9999968406951255,0.0006668341304257924,-0.0006716033271782494,0.002328708006901331,0.02951090342274672,-0.34139712798551075,9.760969260364227,0.003707299875528549,4.838524235220402e-05,0.001813984063736402,0.7139336135397023,0.4273753059168736,-0.8780280283742452
25997,3.442,0.9999968268479278,0.0006698814440995004,-0.0006769584681908617,0.0023322264382908712,0.0853424516282045,-0.37480542086183916,9.767722424345298,0.0036260002866196047,-0.0017678301285220604,0.002032351693532601,0.7158588740063426,0.4348499900932357,-0.873881553839181
25998,3.450,0.999996792688871,0.0006732492699640781,-0.0006821189525819017,0.002344367958896133,0.03155800893757431,-0.3193511337249966,9.725592583227469,0.0036488594835298177,-0.001550616124171562,0.0038522570181735044,0.7177855830194729,0.4276595167936378,-0.8699502933868032
25999,3.458,0.9999968225795943,0.0006693369374544119,-0.0006657315921603555,0.0023374388178654115,0.056933120478374566,-0.3647070914656073,9.796300880777364,0.0020049404131993955,0.00354796560673892,-0.0004398205706142431,0.717812959316228,0.4321575022864448,-0.8740176565217211
26000,3.467,0.9999968124695013,0.0006642947870326722,-0.0006879566720233788,0.0023367667601168498,0.030421846337762466,-0.3335324813689891,9.789467080843524,0.0015982012717365222,-0.0055330577786608945,0.0006523553282354127,0.716569428326313,0.4259257587601264,-0.870630173052551
26001,3.475,0.9999968056520897,0.0006675726345548505,-0.000685796226475635,0.00233938366471431,0.05723395348156003,-0.3643440942768012,9.796312635041035,0.00370737525519929,4.83712570569898e-05,0.0018139129083084655,0.7173600056197734,0.42855218700644565,-0.8792680004825526
26002,3.483,0.9999968145640444,0.0006562107825796058,-0.0006763906566268373,0.002341526180306666,0.0013786798660114443,-0.33048039989151323,9.789573924006747,0.00010424398641393846,0.0020334960620052604,0.001601414658055037,0.7129133718501551,0.4302917174447515,-0.8715417911699441
26003,3.492,0.9999958472249639,0.00046788553774798283,-0.0005144008239627868,0.002796785251457826,0.056254108844755416,-0.3709283810414345,9.76786158146915,0.0037887458862774118,0.0018645450755746613,0.0015954708961171556,0.7136575813656242,0.42461107845757784,-0.8732906448085523
26004,3.500,0.9999958404470269,0.0004637766187752125,-0.0005127871819498496,0.002800187350537311,0.05802539348383079,-0.3492502443253696,9.73247149066459,0.0018651121692028626,0.00013283812701628635,0.0018169347170717306,0.7282477278139569,0.4298009000612842,-0.8645809044525843
26005,3.508,0.9999958466689806,0.00045169949707724564,-0.0005096581687957487,0.0028005108293551457,0.03028351046042347,-0.33269622125850473,9.789495964906635,2.286320252544859e-05,0.00021733983591096584,0.0018198895827867552,0.7202486301505445,0.42901148694544705,-0.8731573157121435
26006,3.517,0.9999958425261327,0.00045457674392756505,-0.0005246087397125545,0.002798763317045519,0.05887410504666343,-0.3421328825025655,9.760942457185106,0.003521672686985725,-0.003801414823887903,0.00043113649235280126,0.7219319385207229,0.4318331615144035,-0.8693368178084524
26007,3.525,0.9999958735906349,0.00045804084590574123,-0.0005170163615725652,0.002788493207513848,0.058972858984901566,-0.34183702571335917,9.760952226388252,0.003743034304552485,0.0014297827105848593,-0.002044390554763547,0.714174406301918,0.42714854214977016,-0.8775298066281864
26008,3.533,0.9999958802285034,0.0004535679266580218,-0.0005241036718258811,0.0027855192511282052,0.057137443939622175,-0.3630588528363755,9.79636091443706,0.0017608580369463222,-0.0019006894527233255,0.0002156109628445682,0.7238849804297867,0.4247488776705544,-0.8693178998877754
26009,3.542,0.9999958873896506,0.0004723225138033855,-0.0005225842585584668,0.0027801116743300667,0.055763544101832895,-0.37648791442928176,9.73944787180863,0.007391947282302012,-0.00012061527129780393,0.0018079718059935419,0.7153618132336768,0.43245316566003633,-0.8725788019822561
26010,3.550,0.9999959119811351,0.0004608263396012509,-0.0005142763000020602,0.00277473962570581,0.056418761968408816,-0.36928303520943034,9.767922973612713,8.141449078394458e-05,0.0018161764400891718,-0.000218645869566689,0.7197235942988691,0.4265170855073098,-0.86769823818127
26011,3.558,0.9999959133212255,0.00046401419991339883,-0.0005120267402158999,0.0027741413605176218,0.029750986314277965,-0.33810101860809416,9.761083258236383,0.0037074202778318334,4.8427791771818915e-05,0.0018139556408371007,0.7258781691848104,0.42747004287579493,-0.8752636967239061
26012,3.567,0.9999959121519346,0.00047489484602384377,-0.0005197762178893142,0.0027712789447293593,0.056419575436389376,-0.3687571636016037,9.767942836541964,0.005445385991628171,-0.0020697706583350803,0.00020980466703526354,0.7207761388344003,0.4280728221198058,-0.8789837879472326
26013,3.575,0.999995936218519,0.00046327564715261706,-0.0005104747260904035,0.002766285899340998,0.029114003432617896,-0.34440838117975425,9.732641178891788,8.142795563600356e-05,0.0018161674142082955,-0.00021871582114997383,0.7282964716058354,0.42734662851842403,-0.8718228884184128
26014,3.583,0.9999959186856029,0.0004665168999034599,-0.0005167230206956387,0.0027709152710735764,0.02983615183878488,-0.33735366908618497,9.761108856141297,0.0036260130054897783,-0.0017676988249840152,0.0020326735695172056,0.7253604747478318,0.4212727491527208,-0.8708953510682578
26016,3.600,0.9999959528460834,0.00048112448055596165,-0.0005166296270590018,0.002756066856437929,0.041936057399738616,-0.3665186524853758,9.768023121792886,0.004594249799150648,-0.00032015341007732745,-0.0009173439937180779,0.724380399019376,0.42715431455456476,-0.8703766686024523
26017,3.608,0.9999959281486606,0.00047713656125157854,-0.0005050283394334805,0.0027678463066932724,0.029869502716777616,-0.3363788949138487,9.761142394386141,0.001969531790673764,0.0021668836736638956,0.003417933494585186,0.7185872307123499,0.4353580323783252,-0.8802328770407123
26018,3.617,0.9999959145780376,0.0004727009468531537,-0.0005109447075112868,0.0027724207032335507,0.05643026034275782,-0.36725501806090266,9.767999367014994,0.001783730249570436,-0.0016830682744996255,0.00203573642608363,0.71926534713778,0.4283139707425148,-0.8721621191992642
26019,3.625,0.999995886262246,0.0004682921449749063,-0.0005073525691077083,0.002784017676559332,0.05906187581445625,-0.3387630417730911,9.761058856787898,0.0018881187469968795,0.00035074117232382227,0.0036367505902722527,0.7273154492948511,0.4361646703957844,-0.871163569879171
26020,3.633,0.9999958851081644,0.00047917282690221476,-0.0005151022623606914,0.0027811561984130173,0.027366490795878173,-0.3641241168294932,9.768109441147123,0.0054453758051086106,-0.0020699642747342675,0.00020999600493292261,0.7246505580616969,0.4328808558418101,-0.874241466667965
26021,3.642,0.9999958464077496,0.00047493829072715735,-0.0005046493168486425,0.002797665086494342,0.02995534531486029,-0.33548008152679776,9.761173063884474,0.0019467228043119904,0.0019492494330697646,0.0015979837605333467,0.7200585323119769,0.42115501488738283,-0.8811874058266381
26022,3.650,0.9999958590788793,0.00048647314651756454,-0.000497335098028101,0.0027924589115634695,0.027223664612180804,-0.3635161199555864,9.76813248549136,0.005608399824065772,0.001562280223605698,-0.00022775983869982854,0.7215054145384945,0.43566230820272783,-0.8785138888307655
26023,3.658,0.9999958361383872,0.0004889383408151824,-0.0005179012118031105,0.002796502015396382,0.027376462097724395,-0.363147163791283,9.768145782167528,0.0034629873026838895,-0.005399871035096014,0.0024708389919606355,0.7231563041292646,0.4335238572938596,-0.8698768538539441
26024,3.667,0.9999958238446641,0.0004698407171657844,-0.0005069197903234894,0.0028061673610679625,0.05925321785246244,-0.33742055438378277,9.761104196652825,-0.0017148674501415019,0.002336363473136129,0.0034236703508214914,0.7239321208901697,0.4293875024223544,-0.8763216729854025
26025,3.675,0.9999958061383757,0.00048036661881141387,-0.0005135184001265637,0.0028094932684528213,0.027475898301416803,-0.36292527273704844,9.768153749451548,0.005445355456117037,-0.002070123491219907,0.00021010265532984298,0.7236909803276802,0.4281503341771052,-0.8767682211970558
