packet_counter,timestamp_s,q_w,q_x,q_y,q_z,acc_x,acc_y,acc_z,gyr_x,gyr_y,gyr_z,mag_x,mag_y,mag_z
24572,0.000,-0.029976303144290943,0.5286637324912513,0.01939730879232823,0.8480800808943902,9.77772987706284,-0.846359065022031,0.6683898494802172,0.04570512398549233,0.0057933048975101435,-0.0008219456378989133,-0.5146824629011333,0.07269792950904534,-0.8663172437477654
24612,0.333,-0.18454734613117568,0.5863053454337646,0.026698732834395646,0.7883371719110882,9.263732438213552,0.7194393202525458,3.13455611176687,0.18487835397849545,0.016113664557001972,0.1313635271515438,-0.46222905341280257,0.047433794034052214,-0.8612644600153817
24621,0.408,-0.15289883062278695,0.6186982773062466,0.04228548007271172,0.7694454674812815,3.2433265943140173,-1.8175062630393393,1.9989538626743084,-0.31159589808833665,-1.0493246481083063,-0.8272525457747192,-0.5354042698573225,0.04129327692846208,-0.8381897326433793
24622,0.417,-0.14973544071800174,0.6204377417705188,0.03825017622930939,0.7688779034398842,1.329011826147669,-11.071368314829568,7.4958052082986635,-1.263191238489175,-0.2881077890277652,0.05019839640786533,-0.5340096496825291,0.05060383918088292,-0.8289284338292471
24631,0.492,-0.14747933413435058,0.6017813928716541,0.007953257764995796,0.7848858177389016,-6.228437590455361,1.2408612768411018,-1.61339098918931,-0.5933257504514817,0.75743448551285,0.3926291577005101,-0.48502641479325054,0.11227713107837714,-0.8491872966481944
24635,0.525,-0.13104230354696872,0.5891821126295681,-0.019338494534198166,0.7970686140274333,44.563550613327436,3.0733448580087814,-11.431500244152177,-1.767400518740735,1.2660315094572576,0.14231228073259747,-0.4478580499474942,0.1569846491451582,-0.8568216162281375
24636,0.533,-0.12830328972532348,0.5857418466209336,-0.014308041251623167,0.8001500077599829,49.46022567062045,-21.286049652532547,-16.271024667904214,0.7035772531827272,0.9902433012939484,-1.293504527507186,-0.4453047611341719,0.15215205056631978,-0.8715589144813984
24642,0.583,-0.13463434606550867,0.5691376189436209,0.057180185118812656,0.809126930705237,12.168646841495606,-7.186479240397354,2.394732959546829,2.5218685965136656,0.4192753863381755,-1.5243067850990384,-0.4303740416827243,0.018398546908130104,-0.876529596157728
24644,0.600,-0.14148837211566706,0.5622240445447144,0.06289001627940673,0.8123607635430319,-0.9263762414020448,4.407567462376789,23.2725383583954,1.1292466233047807,0.8472384804780351,0.19097777743502256,-0.4171471680527523,0.0065045903760793545,-0.8821840422581514
24645,0.608,-0.14876619852526526,0.5655277690676256,0.061336945797709805,0.8088786928025393,-1.8607092765186548,-3.7051627279751305,11.312072270789862,0.6424397944206977,-1.0000752618658142,1.758686390461766,-0.42527670411698043,0.010941684442271213,-0.8726067006766219
24653,0.675,-0.1811442871729596,0.6117358702096475,0.08650076697262779,0.7651689941683424,4.4888897809849215,0.9038758896406196,-0.7580349636445076,1.0443087413450522,-1.9325932834080293,0.568151075633459,-0.5303646097537833,-0.02504671733044979,-0.8266647219586668
24658,0.717,-0.18664726089139091,0.6228798382174776,0.11601052699693565,0.7508162656534576,1.0001331302654866,4.241794917369451,9.798572303391088,1.214452150864046,-1.045535627387184,-0.5388565143534323,-0.5654060813410273,-0.07754048263121198,-0.8097467138788368
24659,0.725,-0.18847420002865667,0.6209944736441709,0.1143531501559374,0.7521746450634794,-5.503427876723847,9.226721924628107,2.851147472088438,0.03913564959397956,0.6586312557703728,0.479520488067272,-0.5556501040434458,-0.07799248634264526,-0.8084380634468893
24660,0.733,-0.18944046367036937,0.6173520008190164,0.11290237119372495,0.7551436104397276,-8.993059771992,0.28186518162137114,-0.5642068765943128,-0.029080385659594827,1.1896985470428598,0.18526175583575538,-0.5531395533839474,-0.07508692017391133,-0.817542305796876
24661,0.742,-0.1944668606179088,0.6071720591657437,0.11661923429154836,0.7615278621843711,-2.789620351386301,-11.459027025326757,-6.257892481584543,1.7149784771578442,2.7668444743161684,-0.1423660171739076,-0.5257023402080834,-0.08449124985356998,-0.8297573906779215
24665,0.775,-0.2131058078844658,0.5769283277277164,0.13991101178972518,0.7759926082709715,20.527790940723182,-7.98358774396255,-11.771325076778274,1.9970230368068511,1.7815736245784277,-0.34666561166724885,-0.47993903707357594,-0.13792268942671015,-0.8439516544834755
24666,0.783,-0.2195421072519197,0.5795244228463536,0.14086837870971822,0.772080828895319,87.81849421194018,24.184371497037038,-20.531379318887254,1.1024856284915565,-0.8894805855754705,1.3190281176467868,-0.4843924234457974,-0.14477607772175163,-0.8362109895579293
24681,0.908,-0.14961604655225658,0.6140854520400749,0.03378158042965627,0.7741917727737001,11.419129573751073,0.4315520000501655,5.432948587362253,-2.097656531349146,-0.193009303383468,0.20392621585294002,-0.5220362215326529,0.10529871617330555,-0.8624515559046205
24682,0.917,-0.1462754625129105,0.6176017256869923,0.03469351557483121,0.771989609691829,-3.133533646364575,-1.9578116034214152,-1.5042327611602269,-0.34101592294049726,-1.006518843041366,-0.6455636811230572,-0.5359693204518362,0.10170312128553473,-0.8602527007279879
24699,1.058,-0.1577636524752167,0.5924626606919077,0.05541362362090399,0.7880532697481472,12.344532848248218,-3.6618973802293997,-7.0982629788275124,0.3736860724734713,0.38253779067911275,-0.09912549949517509,-0.5271516996487515,0.056649385025875694,-0.8639834558671752
24700,1.067,-0.1568931244645114,0.5897299125378317,0.06372704579083283,0.7896467826747968,14.658699387957274,3.0518984948882006,16.531773465938535,1.7384248723013798,0.5018854528438536,-1.367718895740859,-0.5113361876725837,0.03438578698021384,-0.8568547911664061
24702,1.083,-0.157707342531968,0.5765004947819599,0.07430157953815447,0.7982824368015348,3.384246301932264,9.327797708004308,24.770482519218227,1.2399571720695697,1.7017914162543362,-0.9011217628727178,-0.4873121113979743,0.021299307864564875,-0.8697196985445603
24703,1.092,-0.15928678439148744,0.573260883552355,0.0786309093281766,0.7998855291885317,-3.0872859268590496,1.892977589316454,28.3963720967717,1.173219840737611,0.7280178331270254,-0.39599675348879526,-0.4780941348289918,0.005653480773060002,-0.861859678562018
24704,1.100,-0.16413507232509172,0.5727009908527533,0.08135278621406516,0.7990337773112728,-0.5297221587953899,-9.852769035081621,14.122686073569007,1.2357420783803237,-0.03639159771036703,0.5614842780793697,-0.48100310769193233,-0.0015100613197680502,-0.8646010624312295
24711,1.158,-0.1952131312791588,0.611443569214133,0.1013720579374128,0.7601001913645343,6.118405972874471,1.269641780837532,0.6808912590670395,1.0627111236189943,-1.872193900403465,0.7172974486095786,-0.568300835424479,-0.029559541565764163,-0.8143621885210804
24712,1.167,-0.19124162816801002,0.6197392589251375,0.1036953803628843,0.754053816841986,3.9616256149333737,23.700698697690814,3.5292753512059134,-0.33355610733150065,-2.5729612753960867,-0.6412550795262952,-0.5771406097277569,-0.025453036101054163,-0.8077115153723893
24716,1.200,-0.18360545918299487,0.6407431539220528,0.12736505279536656,0.7345171130658944,-0.5533654947920514,1.18966426337189,7.071214604623534,0.6653630125871245,-1.966907324493727,-0.9411555313451427,-0.6281866226008228,-0.07228833323595311,-0.773007369331823
24717,1.208,-0.1826983595604302,0.6409211239001111,0.12621299252609194,0.7347868417916552,-1.6559442684900292,4.228629866664412,-4.465054197191164,-0.3094606754322879,0.044711414892580334,0.018393361268537786,-0.6189490736337439,-0.06676090072577869,-0.7677270680028715
24718,1.217,-0.17827281901303313,0.6412331711033029,0.11890250540008361,0.7368181705736716,-7.188759532131932,10.781877578179946,2.819692718659341,-2.0387714529095224,0.4381375250095356,0.28642049255588303,-0.6157085025793883,-0.04967972083077281,-0.7765120074606171
24720,1.233,-0.1737573981631763,0.6376178236995016,0.1139416262534758,0.7418013098471778,-11.177436226235567,0.6990925538987451,-2.9911496021266504,-0.7675319176220213,0.7539987051411378,-0.15182311524597575,-0.6171030041754442,-0.05019784428673027,-0.785788935416322
24722,1.250,-0.1792665754810293,0.6183189386552753,0.12505585413870932,0.7549213325646299,0.7562967124744311,-20.30103568043321,-9.392280082996415,1.6409750020181189,2.5960605642495023,-0.8375269643330908,-0.5784009150214741,-0.06999586178377402,-0.8024964252647879
24723,1.258,-0.1792559033865182,0.6112617369560208,0.12972524276201236,0.7598669432373859,12.656187857224309,-12.572316627508496,-12.933142030335734,1.0145448033893145,1.8511686052992355,-1.0742270929275157,-0.5665937061617369,-0.08719485540979173,-0.8141111945036217
24724,1.267,-0.179849242599919,0.6072687293651075,0.1342462879115905,0.7621396685998453,33.710397783875855,-4.0019354908079,-12.422460260273791,1.0109872344933912,0.9110624530523315,-0.7648328974933424,-0.5631991019264939,-0.10004931856349578,-0.8110186941100879
24725,1.275,-0.18347634407607477,0.607762090239058,0.13860271485685063,0.7600993094767551,84.33330491771365,19.105795590424272,-16.485545438493805,1.3972360412505087,-0.45369462992090054,0.10798134679615959,-0.5629404395552833,-0.10963156255189259,-0.8129317909449356
24727,1.292,-0.18393786197327616,0.6189877076485791,0.11375858335042245,0.7550364662893856,42.82750678161373,29.203376273873065,-16.408513409464685,-2.3749378704786013,-0.8996726652778206,2.138323392056122,-0.5903113291526009,-0.05236891075009708,-0.8094584132325556
24730,1.317,-0.14861632928118984,0.6232661871445725,0.04980564686351617,0.7661408774982305,20.7501552665839,10.932953940998155,-0.9667162898896299,-5.752888298270536,0.8888049401179225,0.9791797812331655,-0.5841860818253032,0.06185345193472567,-0.8122995831896546
24734,1.350,-0.13473825601018982,0.6165753753620298,0.01935546256926331,0.7754390852499213,2.4949242873831206,-25.210328537835277,23.315029629474758,-1.8657887728757956,0.8770608577142868,0.43710123954484753,-0.5611859476447465,0.11831788183220988,-0.8189233792312314
24735,1.358,-0.13682591200277264,0.6186632201287529,0.0238273632201979,0.7732830960434249,2.02825916670823,-4.311408322737076,13.671001817711574,1.1348311062201033,-0.8285876032172459,-0.21527103901765096,-0.5623499871175207,0.11467780583696974,-0.8263965010005597
24736,1.367,-0.13964571538405662,0.6228208686138558,0.03056306481534764,0.7691938239891493,3.5054480078711614,1.1756416606170184,0.7051687536781587,1.5575031509757162,-1.5707345307543419,-0.38371076366130347,-0.5727525981506086,0.10304592061629665,-0.8068355265035456
24741,1.408,-0.13401308395976044,0.6447840694003594,0.048145860797735564,0.7509833375402893,6.509102370852887,0.21137426750455005,-3.7619199696765255,0.3649545749319618,-1.460620327506825,-0.6307080884425305,-0.6220886725578286,0.07721197781999753,-0.7722506504067134
24743,1.425,-0.13303464315939673,0.6487045734375685,0.04560391992182531,0.7479334479807668,-3.3883351117019567,-4.802045424147156,-0.07016581963041534,-0.31109311864592515,-0.5519037061859459,0.16921907228080235,-0.6265426426136952,0.08428295631894736,-0.7644330536928653
24744,1.433,-0.13320163732302043,0.6501308788779008,0.04141687267161954,0.7469081649051762,-3.004910838103864,-3.1386258179969313,6.262457653891863,-0.7237796688706326,-0.2954968093365661,0.7278451455064077,-0.6246093833039162,0.09510700921071087,-0.7618072688890596
24745,1.442,-0.13294615316416922,0.6513334931276484,0.03632136833990068,0.7461707306581398,-1.8970215702446331,-1.2981797637188808,7.825776076224343,-0.9740692083601017,-0.19093916997608726,0.7803295971638792,-0.6271653991210502,0.0960422758163697,-0.7467105408630221
24749,1.475,-0.13751921679044596,0.6360063819429733,0.03545072047302332,0.7585035224434331,-11.571050695362787,-2.0158973282300696,-7.482411357203778,0.2464174417544095,1.184966110018533,0.13539839258982778,-0.5877230290966184,0.11138516198910628,-0.7644510986519086
24750,1.483,-0.13921322356422502,0.6348571044844511,0.03316684400969674,0.7592602292553672,-9.847058800998399,12.323806039533988,-2.8936377689449913,-0.06426275329164484,0.40535914721028654,0.6440655997069312,-0.583342733579571,0.10631093702372471,-0.762558102869769
24751,1.492,-0.13921983520045828,0.6337762866494873,0.027511586521891677,0.7603871175753788,2.291494424045347,23.502736936681433,-2.1041590173179308,-0.991805477209483,0.5357396649757122,0.8337872066603558,-0.5793895803415432,0.12591179912055545,-0.7687253149674445
24752,1.500,-0.13558955934004704,0.6322577594861868,0.016494325092012572,0.7626227994278943,9.207374349873056,24.55708828127341,-4.368218399457738,-2.4866218054117204,0.9383935001574781,0.9786406620260724,-0.5699386608594098,0.13473429326645156,-0.7593884666102922
24753,1.508,-0.12883692054855048,0.6298654152235703,0.0024789300162120272,0.7659402466999501,27.561506628230976,18.641161295919858,-14.366317750787289,-3.5150112502073925,1.3491186710060823,0.8337359739239861,-0.5650362979111684,0.16469999166459423,-0.7619467694356614
24759,1.558,-0.13377055594911896,0.6200554473373467,0.05133684212616583,0.7713632148533268,42.77453389328394,-18.064931309341915,-12.950532555280674,1.673518707356284,0.2223042602178207,-1.120273994224493,-0.5376686643553531,0.06812621865050332,-0.7649909881375448
24760,1.567,-0.13289204848779984,0.611941371742185,0.05936608562823205,0.7773950918781205,9.138471831650435,8.346289605104003,18.885125106795833,1.6641263075721726,2.20690555009754,-1.5632855890457598,-0.516333824400914,0.0465057605496899,-0.7773797997191436
24761,1.575,-0.1323507080656614,0.6014304815162668,0.06810699895478367,0.7849370055431218,3.020004690377264,6.796688815615215,20.078404511477913,1.7700056649378078,2.8366455735774916,-1.7121115102728641,-0.5067728673871086,0.04195446425256494,-0.7825463286001066
24762,1.583,-0.13130143520888948,0.5933188875487863,0.07707104865415909,0.7904382861737563,-2.6252611973009987,2.021934343405366,28.300681191650686,1.7356470892130273,2.084760100816104,-1.7427775268922368,-0.4839846536841419,0.027217449796225743,-0.7934177922815017
24770,1.650,-0.17743987096014877,0.6288979254207142,0.08793865081255318,0.7518439234897328,3.1131037856028922,-1.9519583992609986,2.6813532326022016,1.0418263155749479,-1.4980085601330657,1.0776518560994763,-0.5394050064287059,0.003751718742367366,-0.7613916194102093
24771,1.658,-0.1752599158417838,0.6366346018386584,0.09143212822476193,0.7453995650449192,8.753886177105878,15.10953162131002,7.076220551763871,0.27635239080232976,-2.514805577996907,-0.5251466296353429,-0.5585230625414475,0.005267617048429162,-0.7515670499236593
24773,1.675,-0.17011730214849452,0.6520443414282754,0.10601660686414699,0.7312036374294767,4.403561970617859,11.275594012343628,10.799380665918255,0.7393565836429272,-2.78957164349268,-1.2018429063751166,-0.5914255471443469,-0.0010808697153318774,-0.7269593537299258
24782,1.750,-0.18441369005024275,0.6340612102021977,0.13332891424968432,0.7390408468169924,-1.1175215741592708,-2.3285358104493477,-2.2561988086522375,0.8490054323748694,0.41587734915350094,-0.2821383445988322,-0.5734583972000369,-0.04683305140640568,-0.7459880658872581
24787,1.792,-0.17539228971640977,0.6331504143058453,0.09750326521359541,0.7475635162613666,44.16179513725211,17.945233958143138,-15.949992891622927,-1.5479548835366728,0.5404549812506578,0.7186833041318605,-0.5487565602878097,0.01869670285687745,-0.7516456298828094
24788,1.800,-0.16423465403617474,0.633306014988452,0.07346216336081099,0.7526976686209504,19.45719012910742,6.203498191069976,5.839966888539352,-5.973233610292768,1.485770184415254,1.5661914906023184,-0.5449962657468822,0.06862871251506464,-0.764572926875296
24790,1.817,-0.14403609294746195,0.6313846704685845,0.03253772931763764,0.7612806959305876,14.079542690223406,-16.406583571835494,21.285492362831953,-5.258324105476743,1.42321679783079,1.1759337805216592,-0.5227408175022826,0.14468078258470257,-0.7695830501076256
24794,1.850,-0.14949058463981077,0.6288892766049307,0.016309053014386544,0.762813776530779,-2.037661361425898,-17.971694981905433,17.623693277798083,-0.48555380810650184,0.3021500286777671,0.8592262699988404,-0.5188246383405177,0.1646699363151615,-0.7708769342787328
24795,1.858,-0.1501556571528593,0.630927034247522,0.02456096019730254,0.7607766527140578,-1.2852326968796388,4.024129145898341,-3.736761750973754,1.6212539617437036,-0.9328243599737693,-1.0632689177714354,-0.5263749768923345,0.16142536483256784,-0.7732808595523256
24796,1.867,-0.14832089157092618,0.6345363040336595,0.0309971723911852,0.7578942982307361,4.20948888329138,7.925896286579714,-4.55386257588374,0.7796073929859259,-1.29977845032283,-1.2359136754270508,-0.5410985370518359,0.14682058986527707,-0.7634349673383946
24797,1.875,-0.14427925326999796,0.6397741026034836,0.03362712658659057,0.7541497272235061,10.735356119499842,9.014619187879337,-5.711056350562326,-0.25696640477716015,-1.6103907867653497,-1.0029942573573554,-0.5485307949566655,0.15163876268607884,-0.7492227681147275
24798,1.883,-0.13978363220015658,0.644432093386609,0.03341735395343573,0.7510333505491188,12.069641050710466,2.2074705854834327,-5.597277850507595,-0.8648550847366561,-1.3287280991151236,-0.6755575343809774,-0.5577527571525095,0.15777447457936986,-0.7565574668816083
24799,1.892,-0.13479558623170365,0.6484894065761684,0.03223363155115561,0.7485002555029389,9.160705381141712,-5.019008421760751,-3.9135276212913714,-1.0557774838967795,-1.0976714225508863,-0.6164912440636718,-0.5668484303669552,0.15899584867904124,-0.7483579317448499
24802,1.917,-0.12667507731348,0.6578940864499725,0.027248576430088944,0.7418802537366214,1.069774432223784,-8.195426598367462,-1.0181069258428566,-0.8007984171764388,-0.8670054998260959,-0.1581811628417722,-0.5882102849355234,0.17583660602086346,-0.732408488316057
24804,1.933,-0.12642643084910288,0.6597794919598066,0.023338892475547886,0.740380088650439,-2.7489425518370325,-6.874207843476119,2.163306696626222,-0.33997547997982963,-0.22898008785936655,0.31621401888707035,-0.5863105157130724,0.18605838857516913,-0.7253685789597635
24805,1.942,-0.12695802943123313,0.6572539258107805,0.023438408798898476,0.7425291756976494,-4.0143210582116176,-7.484623517214797,-7.0346429862114155,0.21385305061922852,0.7965865549557474,0.025409881476868894,-0.578439696742796,0.19095950444411164,-0.7330256110350154
24806,1.950,-0.1295526792863442,0.6517870713367809,0.02654440184340416,0.7467831758005317,-9.223400741319791,-8.950999587478261,-17.24639163387694,1.108337894833758,1.573055788504119,-0.15650634125711896,-0.5733385012621827,0.17591594769006466,-0.7296112038292858
24807,1.958,-0.13347417655454594,0.6466364022437557,0.030240807749130922,0.7504208825939064,-16.728785197070213,-3.0684326065183956,-0.15325132464058183,1.461444722193195,1.4112097093449076,0.014156609275849552,-0.5656875282801588,0.1816994323448189,-0.7404712902274453
24808,1.967,-0.1382162393834305,0.6447842102857189,0.031272498630784344,0.7511135893899883,-16.30883727200833,8.943636979589108,7.262808469035493,0.9853650078776933,0.4257373909782892,0.6571504885011149,-0.5644306614626775,0.16959029327557895,-0.7452331757128351
24809,1.975,-0.14188705966698176,0.6413989252195376,0.027944947511912434,0.7534550822277575,-10.029033660592882,24.464315299553945,-7.052154241061971,0.11840599724266111,1.086480223845857,1.1104384966927818,-0.545188423155685,0.17855584116848133,-0.7392458285061231
24810,1.983,-0.14275749340273614,0.6394268151848616,0.020377278932955274,0.7552075294931858,1.1912530890140811,29.170798759905665,-3.822128864967407,-1.1652146555709735,0.855069169322616,1.2775753505881486,-0.5442204254322625,0.19006871894592217,-0.7381132528899649
24811,1.992,-0.1394610534841344,0.636213662730394,0.008053442757699179,0.7587607870574364,16.362050241525544,21.638990776245894,-7.14156731685595,-2.5855978771841928,1.5052440127450994,1.2297929570206547,-0.5325016022419309,0.21669006938857466,-0.7380784450586062
24813,2.008,-0.13789085988213368,0.6266018298327277,-0.00928989826409816,0.7669875849070091,50.569927037779294,-3.5963943813197976,-18.905558775145987,-1.533985766531198,1.7631416215104467,1.09190180574379,-0.49781483995587505,0.23883946520330346,-0.7404239951123778
24815,2.025,-0.14871127520947772,0.6260033156717016,0.012217334605621544,0.7654120080902452,57.473355658336544,-33.98993167552216,-23.210062651084606,2.845660184802971,-0.4074714205172742,-0.619173934131675,-0.4973067906797142,0.20310230024172396,-0.7430276460351476
24817,2.042,-0.15463191809865356,0.6235345175889102,0.04137168273785752,0.7652333364064419,20.542881209562704,-4.79062050288666,-1.009043239532082,3.1914421420657493,-0.24237940599505703,-1.675321528127716,-0.49504467852562833,0.1537557274962389,-0.7515663370672487
24820,2.067,-0.15380599805783934,0.5977798900857735,0.06392805425472975,0.7841658764889464,5.536278137163981,8.92257669435502,24.42193430376743,1.6107003393766541,2.2897305131323673,-1.4399638250910016,-0.45111615264732674,0.11549526883275588,-0.781366705686021
24821,2.075,-0.1526151153071317,0.5943372931954481,0.06970642476502333,0.7865194357696299,-6.181518892516505,4.807568290906753,25.629303415651393,1.0890185625881525,0.808305203950834,-1.150556781896341,-0.4420366134315291,0.10017040979699546,-0.7874397166705522
24822,2.083,-0.15516426869371136,0.5952877959276798,0.07249720765339027,0.7850481798098584,-2.9135627124549432,-9.396636457935744,15.340788599091177,0.8856991434606493,-0.45026717252120685,0.12637376235993344,-0.44529921933055383,0.10051662798987349,-0.7757504984657231
24823,2.092,-0.1610550144637119,0.600819464290847,0.0727557491221166,0.7796049349606716,-4.01398934232894,-20.36675705040799,-2.915062877367184,0.8454908105941178,-1.7539260858823278,1.3275172067657863,-0.4499871993546333,0.103151716255991,-0.7692690880940279
24827,2.125,-0.18429149191046418,0.6256902312165435,0.07534750910977882,0.7542354628632596,3.1236559461517848,-8.510844577738998,-5.344246883280119,0.84410019464877,-2.0381613913213164,1.2750263743670156,-0.49885721358320095,0.10014516978100098,-0.7639331513756845
24828,2.133,-0.18282827231131513,0.6314842164671683,0.07675907981822297,0.7496062638892272,13.482312348279741,16.32135068318864,5.484621605834825,0.0021288264929693397,-1.8022200400440342,-0.19271430876848328,-0.5093421624103,0.09936257746808586,-0.765699349255752
24829,2.142,-0.18113709433105027,0.6380908262730367,0.08089705822268407,0.7439658032829286,9.664380752756623,19.848463111782113,4.565894811096948,0.3022361360816668,-2.235792685995262,-0.6373973542522318,-0.5158007315033966,0.09149097951924472,-0.7511046821237771
24831,2.158,-0.1767550285292566,0.6508443877101241,0.09426663788353418,0.73230665971162,5.679385187980718,12.849043035247254,7.4936746460348,0.7187248606666992,-2.325276310015505,-1.112672244651325,-0.5502365381147262,0.08323709898243412,-0.7496564561528136
24832,2.167,-0.17553177612866294,0.6556463763476416,0.10169142864422964,0.727306866523079,3.774120328196342,6.499916836652398,9.949031444287918,1.076065081910199,-1.9224336126844737,-1.1143096651036675,-0.5560094301927975,0.07359355058295138,-0.7288978551564338
24833,2.175,-0.1756911215301254,0.6581641666626052,0.10680999710129413,0.7242542261223107,1.2466074001471432,6.326106084371917,6.484535943874455,0.8868450903241686,-1.1108176034788744,-0.6339754579477999,-0.5627963951076764,0.05972568298774686,-0.7353785653512748
24834,2.183,-0.17472407419117855,0.6594997828504422,0.10637730527930048,0.7233363002364597,-1.0665954051757291,8.044612678319092,-3.2361114105653037,-0.2014615749455507,-0.3695854122665195,-0.032011908187509264,-0.5686151889976543,0.06640716601970889,-0.7407495417429598
24835,2.192,-0.17369834148565844,0.6590831162140003,0.10275857204211167,0.7244853400577823,-6.419467253911613,5.752945076208164,0.48440594653935565,-0.795511755912185,0.37221768581887765,0.3465162005631361,-0.5686472562937076,0.07214978106707251,-0.7365229466476467
24836,2.200,-0.17485629550145668,0.6568026691490463,0.10145703676152905,0.7264585324805305,-9.08210780487303,0.07999524686690498,7.127789422316134,0.06604661980823787,0.7961926073271082,0.29702409280822295,-0.5663663013268843,0.07377747393734828,-0.7475451941281733
24837,2.208,-0.1777114281438282,0.6512654549392184,0.10266885276724688,0.7305689989188917,-5.509505282997422,-7.335391613720041,-4.582497899609451,0.7979561312487806,1.6342451232785447,0.03512563506013292,-0.558020558298308,0.07702084158658236,-0.753439843797138
24838,2.217,-0.18233701337882893,0.6418314067498179,0.10739509099717746,0.7370698428855621,2.555727079130374,-16.763936737270704,-7.16448144449382,1.8499355432196136,2.6080152052204206,-0.3684752777475899,-0.5454878071752475,0.062291040009261466,-0.764145074885201
24840,2.233,-0.18932666382273297,0.6242139869685586,0.1208715199127985,0.7482662550940944,8.57934586013331,-13.3885862124381,-10.584913022521514,1.9692396877123441,2.2445787995965083,-0.8474357299387595,-0.5137883791293231,0.0397497410608258,-0.7910832884813666
24842,2.250,-0.19350241881828842,0.6182595944506623,0.13360922078985207,0.7499736421375776,40.68431650972943,5.142130023480486,-17.85758724050253,1.6086151793264003,0.4674647299816615,-0.6990178215784884,-0.5191859681193208,0.02006953729479386,-0.7876114872035282
24843,2.258,-0.1958104330787512,0.6211596564131262,0.12977058136174288,0.7476486820394153,78.08019693345175,38.156928803576754,-20.428386374220395,-0.32980199816550326,-0.6312380509297416,1.1803836395226253,-0.5233606910735593,0.018455066349195113,-0.784420135339146
24844,2.267,-0.1915930634086382,0.6268320129744814,0.11210602686992767,0.7468640869016882,30.426347674019862,32.139775982046494,-19.84855429186676,-4.020421584385301,-0.49577052480813294,2.1005922310541227,-0.5314008837052281,0.05771569740836247,-0.7866186077591022
24845,2.275,-0.18089321196699473,0.631573105058623,0.08504005250765956,0.7491069671951852,12.585691791988138,20.374553347080333,-16.2431836680079,-6.639934812149079,0.395262185053945,2.2579796388017557,-0.5290187937211436,0.10752869962331738,-0.7787912304382559
24846,2.283,-0.16875011553372873,0.6316059194642656,0.05545953260600564,0.7546665497079995,12.29014583344054,10.303686110318198,-6.11122563866002,-7.254754168391805,1.812935609145241,2.163301634665848,-0.5199338915999094,0.16570136789363815,-0.7855710933437544
24847,2.292,-0.15608778668613763,0.6290893231103061,0.030464002399551708,0.7608910375039516,18.759241219225036,-8.890526938281697,11.585893968609394,-6.3291476564000755,2.2172811426354704,1.346844601254086,-0.5028607739340718,0.20899637562733261,-0.7833017003739489
24848,2.300,-0.14530445221282515,0.6264926365594373,0.011063442181135993,0.7656834807876166,12.812981037294426,-30.011823211325808,20.65921577861371,-5.09882834260898,1.8241298278315212,0.8479002796277058,-0.4914092683645472,0.24792040903935939,-0.7802129999439708
24849,2.308,-0.14050650503458817,0.6254104316471643,-0.0024898046835245876,0.767537305218783,-4.529768815068987,-42.306128073709345,25.219878993724848,-3.087915563571164,0.9122232517506534,1.162440099832942,-0.4907094091030516,0.268075458987239,-0.7759183416577462
24850,2.317,-0.14264369110611416,0.6244791429102646,-0.008912609589627682,0.7678535946702257,-8.394317919478318,-42.72278781213176,28.177230395467703,-0.8161631675742255,0.3968828442168799,1.3596363314227586,-0.49247611285743514,0.2748951905539082,-0.7683171845689817
24851,2.325,-0.14783887179340485,0.6243859597209167,-0.007946659793116163,0.7669567731550297,-4.928174502509547,-23.503557199328363,23.404927778265055,1.0322878368278772,-0.17987026192582198,0.8471905828863455,-0.4839653100539887,0.2725846818436138,-0.7637877426193457
24853,2.342,-0.16048824349227933,0.6262565893739847,0.010777544403559079,0.7628433997243846,-0.7642911529489131,2.9139038489411955,6.66297965717408,2.637178212637496,-0.8160430289654744,-0.2183520179089615,-0.4971358105878672,0.24664494340762042,-0.7655634911652313
24854,2.350,-0.16094030750705454,0.6276757455800083,0.017681666246834024,0.7614517282854192,7.128823929340373,22.024172310207625,-3.973514334914719,1.3643362326794992,-0.6972213639161935,-0.906713553012613,-0.5030237826954079,0.23405615294423354,-0.7618165077960365
24856,2.367,-0.1515428329413649,0.6368957749822062,0.015177938414227453,0.7557566882134855,12.580328389815886,14.636317099154738,-1.0933843476788319,-1.1023419350525785,-1.2240573970261597,-0.5751945737596289,-0.5193088205726537,0.25109165801954964,-0.7392394373416622
24857,2.375,-0.14520705769932532,0.6429675655055332,0.011392625004799758,0.7519161044941737,12.062915108399354,-3.205975313592133,-2.9876673122730875,-1.764007578642133,-1.5516032254394088,-0.4163213996007595,-0.5320869639173351,0.2602086763718362,-0.7283701670592039
24858,2.383,-0.1391876766130174,0.6478900610579369,0.007950868883152754,0.7488671732326209,14.112598005801068,-7.653249868150503,-2.85145492143314,-1.7120993600206682,-1.2395653820214854,-0.46584691063259653,-0.5343871811355293,0.27184537692594757,-0.7148090794770868
24859,2.392,-0.13374885008467977,0.6515606890744485,0.003930590259161801,0.746702393202319,11.511780384970224,-9.768011971479053,-0.4944929244414706,-1.6186388991381446,-0.8567336585814215,-0.2728037861834628,-0.5456909920753309,0.2821465011494544,-0.7051848942103389
24861,2.408,-0.12811137192205968,0.6573886858174482,-0.003397922904070298,0.7425739331968193,1.7757150794082288,-10.750306819734407,3.8091860330714367,-1.1836386920180542,-0.7313127783584396,0.11774284915467412,-0.5489329402546873,0.30024228931932034,-0.6962184442889833
24862,2.417,-0.12679877976966278,0.6587524721452469,-0.00659361085635502,0.7415684554964063,-3.0592972392708147,-6.544342136339742,8.935220560576338,-0.7183000448374554,-0.3019258431864001,0.31639798259629837,-0.5406863085528155,0.2994753265978014,-0.6890498332875169
24864,2.433,-0.12783730935261872,0.656814290233617,-0.007278290076663354,0.7431013638636068,-8.008485884288636,-2.7404649529293237,-4.798077960655259,0.05716933152465068,0.3021837100735613,0.12674938135702302,-0.5351276454148095,0.30409153880609097,-0.6815722217310928
24865,2.442,-0.1301269899740788,0.6504080158375408,-0.004434798909173895,0.7483426434282596,-9.55594409150794,-5.805720422154195,-19.536284398451063,1.1683955879749224,1.8919392111689417,-0.12305030156275003,-0.5162713252800475,0.2901876068157949,-0.6890785809840139
24866,2.450,-0.1345596128545985,0.6445349754234727,-0.0015836390325106166,0.7526392682631561,-17.059093262555276,-7.3793936046760304,7.757118737107406,1.3980132716244518,1.6275176192381076,0.2541580884075692,-0.4903150202944894,0.29159290426986323,-0.6991818665999094
24867,2.458,-0.13893149556637324,0.6420554017626581,-0.0017182269857344723,0.753962829523517,-13.104151439958713,1.089949030607698,-0.17651542917392438,0.8029440352408242,0.6400666796218579,0.7933462461407639,-0.49029983484895334,0.2849390689206148,-0.7011833677404042
24868,2.467,-0.14394606451429875,0.6361600913230048,-0.0031717939012425793,0.7580038314165699,-9.280077150854064,18.083903024510587,-7.103789216343233,0.7198459031563096,1.7085054273327314,1.0380231159513762,-0.4609845772253687,0.2880393828228426,-0.7034951329492256
24869,2.475,-0.14599207116626783,0.631464000832327,-0.008531716718533573,0.7614898164908376,8.678596163744462,22.354063314304813,1.6858804066414173,-0.423492930362363,1.5442903377162178,1.1369155024008386,-0.45440227285320606,0.2961357838546103,-0.7022189782177871
24870,2.483,-0.14359310946669046,0.6253265824989929,-0.016699253947581552,0.7668564527024677,25.35238820197836,20.06545711653829,-9.261984955799075,-1.62111663485384,2.209095411187831,0.6952519646659306,-0.43972380392540544,0.3079852592791918,-0.7061216696569629
24871,2.492,-0.1395535228348125,0.6196178511683642,-0.02532816243074251,0.7719825237437531,46.441606460920354,13.230730818731924,-20.585864214850318,-1.9020383024420435,2.1253635367626686,0.494898490354856,-0.40853703205003983,0.327523613131577,-0.697669409816837
24872,2.500,-0.13811298756550258,0.6170697440578864,-0.025957786225587483,0.7742583076521254,74.72556067665846,-21.50695356109412,-20.027482096977934,-0.22911181358047475,0.8496185738702535,-0.2138119684566917,-0.4084605301951817,0.3216078889877744,-0.7077526536297479
24873,2.508,-0.14104543674511866,0.617704170893304,-0.01345395199341527,0.7735416816243026,56.46858089039383,-40.582373135589,-23.343819256011297,2.8055506876279255,-0.6117995645773959,-1.3024111526824504,-0.40793747783143103,0.3114582352236517,-0.7123337702021453
24874,2.517,-0.1463541947906746,0.620604951579416,0.006160088235265878,0.7703194123577687,26.82841183146806,-25.36394713311697,-23.21459958395217,4.310478735778439,-1.6391411897082524,-1.9111797826985328,-0.4225899445542104,0.27508273552952295,-0.7118582711282889
24875,2.525,-0.15211493599081694,0.6222932343812612,0.028936016206930797,0.7673166775575065,19.46343019324371,-9.892411440430005,-14.76848326463211,5.086078644838793,-1.4713520148607466,-2.280705128015074,-0.41742261713982554,0.23267009658164012,-0.7171603115599489
24876,2.533,-0.15517282477016628,0.6209876523024037,0.046765183481614604,0.7668824862746099,22.537086155727255,-4.518612085282537,-5.896818871107023,3.7792979696873124,-0.3884722835627025,-2.1406902517562383,-0.41733590047563696,0.20619780893165263,-0.7285899072119566
24877,2.542,-0.15574524994533945,0.615415247930294,0.05609674838460218,0.7706235426945074,16.43007150007535,9.01377302483077,20.39136823545728,2.0493717125507285,1.3036112734857002,-1.4434080290995153,-0.4038991950422871,0.1983454419531472,-0.7297213902386689
24878,2.550,-0.15606684734338194,0.6077981157639246,0.06165630259347864,0.7761591911358274,4.204630761729267,17.349921465639763,23.17507030242569,1.2821462299214486,2.0567629528080884,-1.0271454343679995,-0.3862533006912824,0.1887980585264823,-0.7385869739692743
24879,2.558,-0.15668379803054797,0.6001523691201627,0.0654059210717533,0.781658100938597,-7.341030952540012,18.710921118556477,34.01629233807425,1.0752404938518227,2.135266900904379,-0.6727549824020448,-0.36512124243984534,0.18631203305302976,-0.7564279794403139
24880,2.567,-0.15842674500469006,0.5978375278228861,0.0670650440844935,0.782939037636893,-9.106117325600588,6.246673085477401,29.13579420908115,0.6336011352131117,0.586270277885557,0.009461957871021644,-0.36308944643053953,0.1737929637131067,-0.7667897171965027
24881,2.575,-0.1627730898004136,0.6005374418131132,0.06694539370494172,0.7799859078721094,-2.8939398412762087,-9.91021038436297,16.488800979723322,0.6321584322667042,-0.8684994495663283,0.9821193602838195,-0.3607172065398931,0.1796798363408362,-0.7576640590182944
24882,2.583,-0.1691336340460921,0.6078221298875564,0.06707142692260383,0.7729472788902765,-1.0266365866783649,-19.556923448196823,3.150713361679654,0.7850619459357818,-2.3232204516748243,1.4841056722972503,-0.36122763629369486,0.18001042494231806,-0.7547466518279047
24883,2.592,-0.1763576565243292,0.6153087855776987,0.06773426738915019,0.7653137555260586,-0.7437239615998914,-21.68693894897536,-11.940522657155888,1.0830409380170771,-2.446366414297756,1.61134255995174,-0.3700870833072976,0.1707599733887627,-0.7455030384814759
24884,2.600,-0.18290940677438466,0.6213130602085616,0.07014555017534194,0.7586790045324268,-0.13408020519777547,-12.560018122583877,-13.61733179996478,1.2777830497459814,-2.1104796023730756,1.1477069118459293,-0.38409065439566675,0.17308250019037455,-0.7661952914626284
24885,2.608,-0.18673891475448284,0.6259849273747156,0.0733854998662651,0.753582123477839,4.487167006558083,-1.3665908619699287,-7.429152039206855,1.12290710155848,-1.6879009895364827,0.4721552224029595,-0.38557049553091066,0.16385969631953276,-0.7642241342299354
24886,2.617,-0.1894162922975715,0.6292604636346205,0.07723333228481033,0.7497918041048247,10.89546164175649,6.785824342282116,0.6885818073313595,1.023462705110754,-1.2875610200089112,0.0813958584484721,-0.38457415165784486,0.15303564342776924,-0.7668276920518646
24887,2.625,-0.191610750172029,0.6327538543315687,0.08306871453114362,0.7456590835718421,11.754909044087158,10.606749965573622,3.046958651398515,1.3774722389569103,-1.454119002851585,-0.27474413798865127,-0.3938347296121914,0.15223862535681754,-0.7690726827492833
24888,2.633,-0.19414542582970182,0.636279582285011,0.09190665899828976,0.7409514240679935,7.637795883655272,8.882973108814989,6.822682311860115,1.8980325486855714,-1.6800873967581174,-0.6726646384849974,-0.4096451707167128,0.1310064588896323,-0.7768697081747492
24889,2.642,-0.19559395004212043,0.639841764524111,0.10260822170429615,0.7360822480648987,3.011210069552159,4.749144546335487,9.71501926695417,2.1382960652776575,-1.7941693658664235,-1.1300333854440205,-0.413269507489878,0.11718186856853754,-0.7818621769598245
24890,2.650,-0.19626291251446032,0.6435757447567139,0.11413540670025907,0.7309338129198493,3.0294648894725626,3.1360281908608685,10.781516693878318,2.084974240566976,-1.9319043196543522,-1.3984536815795248,-0.426918087734544,0.0953546446429128,-0.7849843805664954
24891,2.658,-0.1965291435983601,0.6461111974304817,0.12271915206016043,0.727225292456938,1.9589460986154057,3.501183667913312,12.022028684598167,1.5993225484063203,-1.3649955321738616,-1.080016393862304,-0.43960199007649853,0.08676296262560204,-0.786536443197217
24892,2.667,-0.19681564247030642,0.6484739693835854,0.12742080717191712,0.7242299716323232,-0.995466798697952,8.47566239134451,8.9287829600889,0.8425862586575478,-1.0729286260195408,-0.5130739780385424,-0.4512687813802363,0.0855848658000404,-0.7934292572762012
24893,2.675,-0.1966459759893894,0.6509524864366453,0.12832849183712366,0.7218885085052532,-1.8844823137866848,13.562992410449032,2.752919747850373,0.16132236424010027,-0.8251691370555029,-0.003604673096428705,-0.4569088987427967,0.0895903909584943,-0.7901708833157425
24894,2.683,-0.1953320581663751,0.6538881177669013,0.12678730657220982,0.7198615807138977,-1.4025079093601338,14.828349675403912,-4.057817149370906,-0.5425242887619353,-0.7959004737087864,0.17335009024632353,-0.46919226183324797,0.09260174264578347,-0.8123359707511557
24895,2.692,-0.19536779267998636,0.6521023214013196,0.12472957654754316,0.7218285951253463,-0.007885104608897913,10.78280493848303,9.605224980290773,-0.24731324131316926,0.7270684330729101,0.21326560679506845,-0.46357429789409393,0.0972311767787501,-0.8126744368229584
24896,2.700,-0.19471301821042256,0.6469866088032602,0.1235218798996779,0.7267995003814288,2.2649638731420296,0.2477172603033445,-2.309211901389303,-0.2186277936772893,1.7124037707653152,-0.2650613070731622,-0.4629912150670488,0.10687592901159242,-0.8251678033495955
24897,2.708,-0.19630560689450588,0.6368020322405187,0.127007630025375,0.7347219490061961,8.214150604786358,-14.207225244620007,-1.525837828037178,1.165563968924977,2.9359519801946425,-0.8484500328063865,-0.4450526757528339,0.09054487841334978,-0.8404255225104044
24899,2.725,-0.19948841061591763,0.6140297665480001,0.1356721402768251,0.7515084099167819,12.806931493610842,-12.827374921597164,-11.937139232355287,1.2837181960715942,3.1702775558683705,-1.047272392827684,-0.4155393414543417,0.06796030219080436,-0.8688445685223767
24901,2.742,-0.20054074318059578,0.6084152617820137,0.14009321998236834,0.7549756083942516,41.670398436812036,4.343736163610677,-17.85462324361902,0.610740653913087,0.7020032376221307,-0.3808182630832399,-0.4196923305005948,0.0723673409075635,-0.8685178307726381
24902,2.750,-0.20094914765497315,0.6121649494860301,0.13461558315048708,0.7528294358289668,51.719821959925575,25.406053321392676,-15.68847143416431,-0.9448288098108072,-0.7236291895328799,1.1062566766059696,-0.44409708069752285,0.07770723856326234,-0.8698378425126639
24903,2.758,-0.1967337378459996,0.6201871669087875,0.1200935285924262,0.749827486015959,26.728834701242178,21.22856400864764,-15.369030282075178,-3.5153089784679445,-1.3762897664938194,1.756269224603762,-0.46144702845432856,0.11172173939396865,-0.867799562095475
24904,2.767,-0.1875828577835851,0.6275861446138419,0.09641005123702212,0.7494353905273969,16.333856787772806,14.114715080263533,-12.195412109209583,-5.84656904837977,-0.5763945046580079,2.159994819689659,-0.4639263690383382,0.16535994479192018,-0.8628089298161987
24905,2.775,-0.17664497793497672,0.6298321267580927,0.07064031040316518,0.7530723673192863,7.939025050579387,8.805066103221426,-2.6828056508710927,-6.450443959231411,0.9986503820955009,1.875365108002793,-0.46326672155131116,0.21278309662737951,-0.8532142023111832
24906,2.783,-0.16562119510462897,0.6289939955983592,0.0492431070632717,0.7579652298358289,13.046212612754127,-8.521353851482566,6.1349742880234155,-5.468401343349039,1.5966442818972646,1.136280966859322,-0.4545280741061246,0.2535235615975172,-0.8465359598661019
24907,2.792,-0.1553537831146629,0.6264142011324758,0.0348909889847119,0.7630550894785995,14.817782842662389,-24.852759779917683,14.456088923367892,-4.113638468815297,1.6860571038387882,0.14055626701255097,-0.44552803728591595,0.28857911455243757,-0.8421302440286446
24915,2.858,-0.15521479686708797,0.6342396237630399,0.03978666668142257,0.7563501091669174,2.2057104746937632,-5.643206856714681,9.208596178531096,0.09591498295068268,-0.3220153408587919,-0.06848846271855501,-0.5074839420945336,0.29813851607041997,-0.8497219788394194
24916,2.867,-0.15211920373222637,0.639412262524741,0.040387664996853714,0.7525825821163861,12.402416451558972,-6.950746660593844,-2.431660037629448,-0.1924258079924373,-1.503719649116869,-0.41036995905861656,-0.5215076521257942,0.2953844203610702,-0.8355802245405509
24917,2.875,-0.15013029299019773,0.6433688831643929,0.04092759157397855,0.7495747511425614,7.571484872452935,-9.650492804264008,-3.2170840755260426,-0.3208525559948426,-1.2032907294490542,-0.333738087075252,-0.5296038166814321,0.2916313459682566,-0.8304013783699367
24918,2.883,-0.14785691830320302,0.6458693506647032,0.03910236318046736,0.7479720040051887,5.7086736084523215,-8.885172762526539,-0.5188416440034929,-0.6679946594939649,-0.6381919571347864,-0.04151974662733518,-0.5524148952034424,0.31183087702360546,-0.8165162420712982
24919,2.892,-0.145941899212359,0.6474032848023668,0.03480910266168442,0.7472337487381604,6.909403556836594,-3.116320850919938,3.1810792488181914,-1.1079096178884174,-0.26347494833262797,0.3565668030639475,-0.5535428817533016,0.31195830117921564,-0.8287412801516015
24920,2.900,-0.14326743729945637,0.6485169990925419,0.028260660350414447,0.747061897284428,6.44730530192965,1.047624603125154,7.865437646414443,-1.5380868551802742,-0.02264440425013975,0.5807588450790383,-0.5601961153939623,0.3263647270340729,-0.8206686797572548
24921,2.908,-0.14024079146007137,0.6496216815251977,0.02070349317429966,0.7469240635254762,4.431612689981675,2.6349808161762343,12.777075701341738,-1.8537965228375064,0.0030867965557234006,0.6537296883276187,-0.559274722872488,0.34489809315733555,-0.8133933561637332
24922,2.917,-0.13652790202821732,0.6526267713754366,0.014515908319521813,0.7451360396984611,-3.3103267285254376,4.150182990790197,7.6675594330294645,-1.6948152146532438,-0.6273169001448973,0.3848319980422275,-0.5742375918960686,0.36007268556707145,-0.8041852350828264
24923,2.925,-0.13416480783168602,0.655763747889625,0.011442326972369583,0.7428612147949956,-7.457639491862335,-0.14841176144142948,-4.870171076904978,-1.0091727184647648,-0.8261644071137811,0.12105623079384766,-0.5887232567727231,0.3672302186142407,-0.7935152561982575
24924,2.933,-0.13226685743847744,0.6523757920442783,0.009127807489332708,0.7462090776105502,-6.82812267253054,-6.847460971726404,-18.475108394086252,-0.52987331954282,1.2131239360953545,-0.035470472522946876,-0.5957183935422306,0.37325052444323903,-0.8047377172071293
24925,2.942,-0.1344701195593548,0.6456323365440999,0.008124437623774685,0.7516719141138615,-11.471827625458792,-13.133348144615582,6.7866773201621164,0.3744821203205733,2.090930426835731,0.4160909322851745,-0.5811630590710006,0.3731231002876289,-0.7924108054598921
24926,2.950,-0.13913596172389764,0.6437838132001711,0.0059712666702777355,0.7524280231297652,-10.124561673312826,-9.271792846200935,7.3072779109346255,0.482320440347792,0.5059306045523358,1.1758395586321384,-0.5869630193582832,0.3728922881590436,-0.800264124380442
24927,2.958,-0.1462325339655909,0.6379511760456106,0.0020237735307081007,0.7560623303225215,-1.0273575122971363,5.546151097116266,1.9781505544553888,0.5909095496248373,1.7069330516834662,1.8020032512829358,-0.5678789822937734,0.3849425203627776,-0.8056048501976323
24928,2.967,-0.15289199616956003,0.6301170895516144,-0.004276237667458869,0.7612872025416567,2.6277124501371567,17.51386055975784,7.845158567204125,0.24197988427375505,2.394829115875675,2.0735460303817677,-0.5647641541210621,0.39494190750087577,-0.7978163858377607
24929,2.975,-0.15341857680090487,0.6246884136526653,-0.011786449775428214,0.7655639788692993,23.630517364884916,21.771721422372835,-14.355116315863146,-1.0763869035235798,1.8835019375674107,1.1384314259139634,-0.5515211920819286,0.40521177254159035,-0.8055913472176945
24930,2.983,-0.15196463789221204,0.6184011837922031,-0.017222233319531075,0.7708372846419526,52.945641572903085,7.6334690003065155,-19.50727699363514,-0.8840253750886006,2.1443751040018917,0.465878129579719,-0.5458911983497257,0.4056421376159688,-0.80751538708449
24931,2.992,-0.15328296543926914,0.6169205851864411,-0.012535228515235485,0.7718524419378577,61.743837966458194,-24.38209105648963,-13.18743746247536,1.1216302996673426,0.26538812393174915,-0.4900722577228478,-0.5488847355002208,0.4014947625438682,-0.7991108669640334
24932,3.000,-0.15442714226911683,0.6214079256053113,0.00014422848751520804,0.7681174564632948,39.68501755451832,-28.521555025121188,-20.615417178861296,2.4238867943441416,-1.798693775347222,-1.5860854621690064,-0.5621724239783754,0.37356909495340346,-0.7854407859119271
24933,3.008,-0.15575242693610455,0.6279247882545316,0.01956019335688151,0.7622788470335882,21.70060250345509,-19.12041759096147,-17.125143582591342,3.5216745912398726,-2.715153722324216,-2.549558300013186,-0.5820245499688318,0.34285085959177847,-0.7754017816318138
24934,3.017,-0.15654968258153604,0.6330290831611685,0.03838741735453586,0.757161001996669,7.472686553128618,-6.758028896672655,-5.892337235567169,3.4788298454159867,-2.314827207784624,-2.549089406921957,-0.6113712091591064,0.3071437499796317,-0.7689511670627021
24935,3.025,-0.15619953174337597,0.6382500577734357,0.054025185438490386,0.751877549454493,12.942044011561986,-0.25096729192084405,0.2265190200941292,2.628772225770689,-2.2731283442083554,-2.2876218181538888,-0.6229533369907209,0.2806967124667777,-0.7548233422399466
24936,3.033,-0.1560505707708676,0.6422044042828525,0.06486931700494834,0.7476721836427412,12.977502561314935,3.2945925274851935,-3.450921667962033,1.9304451250586516,-1.7008382642852329,-1.5256226792692433,-0.6401456216759897,0.2679083690575979,-0.7413860557624228
24937,3.042,-0.15655304503125564,0.6419932255594133,0.0681243466190526,0.7474589726700658,3.9033868054357987,6.854207498252668,6.007920000772105,0.6740196192556089,-0.09403048195804814,-0.421451363393811,-0.6197345192385191,0.2607111702363975,-0.7285614955500688
24938,3.050,-0.15476176271287934,0.6420863830375887,0.0652835263458757,0.7480053039300969,-4.602923121681898,14.894336594757796,17.915949197823455,-0.6948648989441361,0.1635298110477519,0.12641664791845827,-0.6144297394035061,0.2631671403604173,-0.7198006870497667
24939,3.058,-0.15460138321408598,0.6430633091731766,0.06080811127993485,0.7475763280803519,-5.522392757699791,18.527340234822187,9.39800528426643,-0.8480752615240811,-0.09556637587492908,0.68951753108813,-0.61083323808559,0.26855151912358544,-0.7111393963460501
24940,3.067,-0.1556987977882975,0.6452341904376667,0.057256098121087666,0.7457563027460624,-3.850156732082294,6.875323995688324,8.334606469759631,-0.41523319754527555,-0.528030112746685,0.8520719190308192,-0.6032642118327922,0.28076043466572187,-0.7111985831844587
24941,3.075,-0.15951732353222803,0.6466151907152227,0.05694784555047051,0.7437741334011226,1.4635096848401075,-7.459583036940148,6.922631036522197,0.5223881345286772,-0.5113478700271725,0.7990020265749326,-0.605047596813237,0.2710363407636784,-0.701398775229169
24942,3.083,-0.16379948630957167,0.6470334651349674,0.059763161550503006,0.7422572248228009,3.7562763119853786,-22.871013604916293,6.436566979785876,1.272471455747567,-0.3525249243446602,0.3897303495032724,-0.5996535739346799,0.26654996037771805,-0.704400549065358
24943,3.092,-0.16755962994254692,0.6485022350046753,0.06430532835492615,0.7397522871560609,13.135660417233886,-22.54803850524532,-0.9616892840294635,1.376215541632833,-0.774295916602469,0.044211782857424685,-0.591426925013071,0.2675705776982368,-0.6945981294350012
24944,3.100,-0.1699804961270425,0.6513684959042296,0.06889765980186362,0.7362600260462965,19.162967280520206,-9.677158813554122,5.4127977339475315,1.2236091903129243,-1.1776545407289571,-0.13033973847099792,-0.592017842248593,0.2643067752453074,-0.681072157216039
24945,3.108,-0.17109369224904908,0.6554539237922403,0.0728133174905275,0.7319872424120298,16.238991836412726,0.317748725404463,11.233819530120956,0.7729485847071835,-1.5224270610438193,-0.23103830830024547,-0.5869315585998086,0.2571372241068206,-0.6756923122269634
24946,3.117,-0.1710463937336245,0.6602891203908496,0.0768616364375141,0.7272232790060753,8.50233626099009,6.179449013286838,10.742684371815821,0.6770367614077408,-1.735643007337162,-0.41068756158979364,-0.594535707488919,0.2453093873192941,-0.6710038244918864
24947,3.125,-0.17112860607975908,0.6646939691896329,0.08164866681101789,0.7226551201729039,0.7448349802565392,8.845446265472686,8.695477420616784,0.7527134467544511,-1.669954105251414,-0.5372938640018712,-0.5901570992435977,0.24097447739271788,-0.6688884396941361
24948,3.133,-0.1700925321766555,0.6684912669128609,0.08569632820430735,0.7189186990830545,-5.6292845292520095,10.479322864620013,5.8418965509581575,0.538950707550331,-1.4039762809464158,-0.6345960465556725,-0.5972349215377327,0.22533465934687172,-0.6692126250185308
24950,3.150,-0.165029115595175,0.6751397505145572,0.08948619647048997,0.7134030620359442,-7.634250761500066,12.790950136427153,1.348647716615745,-0.15809272307955594,-1.125649073184987,-0.598762569794446,-0.6029073342205664,0.22580229264970114,-0.661697601478327
24951,3.158,-0.15933226973726083,0.6788277129046778,0.08871392562311792,0.7112917850035334,-2.778756492331947,12.593197815848178,0.7193111332479429,-1.0274879166689397,-1.016604693650372,-0.694756984979282,-0.5941371393837626,0.23369072402329802,-0.6591774286895519
24952,3.167,-0.15466584062072006,0.6797771373739379,0.08898449067573945,0.7113812491680954,2.635772938385825,10.488356743388573,4.259521416463126,-0.7541370384132987,-0.23009863996775667,-0.8318847260360045,-0.5915627561965006,0.23412349676439556,-0.6445154321621707
24953,3.175,-0.14839481490140008,0.6794164555238671,0.08861452421166145,0.7131056899033305,6.068808149390305,0.8699896000623794,6.396434267584194,-1.0265027437642231,0.27489687068012475,-1.0577111262962868,-0.588495106725256,0.23822639072902682,-0.6626882461500532
24954,3.183,-0.14316563347058817,0.6745609771484583,0.08937170704585867,0.7186680648819675,15.286627061671803,-9.058295193221033,-2.934946370037072,-0.6740899355722534,1.640801371373441,-1.2733293192914288,-0.5774934168393808,0.23376886185913967,-0.6646713101513791
24955,3.192,-0.14274499553721684,0.6653684165972861,0.09543032664925628,0.7264996828626403,16.803087455271378,-14.011447847102207,9.454877509165065,1.2026875681734455,2.7025000475095253,-1.4389329465512986,-0.5585756799830691,0.21278673849087554,-0.6802726336208631
24956,3.200,-0.13823923446474848,0.6605835225735793,0.09945937110060857,0.7311820274453916,24.142477282944625,-8.299051185457705,-13.520915488742899,0.031144908311573537,1.393243303001384,-1.6654143336725593,-0.5535964595205445,0.21363183904823616,-0.692961057563013
24957,3.208,-0.1327888771046591,0.6575191338403061,0.10009043047481464,0.7348589037893898,15.843716027101705,-4.3298481452838296,-17.351349961156163,-0.6609812359215632,1.0306756816303868,-1.2048006513605387,-0.5377107934507248,0.2067267567667071,-0.6950789769101468
24958,3.217,-0.1296437496433952,0.6608166738015132,0.10105467387664964,0.7323262761174075,24.412679418590663,7.306722109030926,-13.483121060728728,-0.3702821992109449,-1.0681457275678543,-0.5824739607039651,-0.5431276264255841,0.21691968780493956,-0.6890707431281441
24959,3.225,-0.13032722284599826,0.6670524032338483,0.09732721523451583,0.7270373577058412,42.728768555879036,15.134141110093674,-13.98473381391913,-0.5098353631740273,-1.8050235492580218,0.9903756795270627,-0.5489864405988292,0.2269322968677148,-0.6891668895906186
24960,3.233,-0.12965577589534796,0.6774361980451071,0.08729112262239583,0.718783581661746,28.098951425268414,13.934370530523703,-13.615301622835064,-1.971242422396484,-2.8903090533827323,1.9142872121359447,-0.5685584985697505,0.24077131294684617,-0.6838623303522657
24961,3.242,-0.12735896183874076,0.688732505050042,0.06980972611654765,0.7103195291320554,15.880919871805169,11.240487358576882,-19.02820221085941,-3.4355833133009535,-2.89069768471771,2.8998446351103384,-0.5652144394970438,0.26694907639044324,-0.6741077797592716
24962,3.250,-0.12331247623529651,0.6951664637074375,0.050422368513109175,0.7063959270088864,4.5641668212683335,9.033852227099421,-19.21598222918661,-4.079896965712118,-1.2992726760417546,2.7300665364900816,-0.5724090665994783,0.300613757649332,-0.6590366343065308
24963,3.258,-0.11937851132434518,0.6969885490372835,0.03528599770464657,0.7061944717362729,0.40106132956307994,-6.101888412230449,-8.841943322678173,-3.143432769172709,0.022536512984320443,1.9243245362807204,-0.5544002192075143,0.3272146732882891,-0.651381617416113
24964,3.267,-0.11896716338457851,0.6939504639277025,0.028697752981991877,0.7095463386027291,6.416304660144555,-19.080929022182577,-5.014366880582939,-1.1154746782556453,1.2360217637298183,0.9494932325147384,-0.5464870360093488,0.33097375672676155,-0.6646224204933435
24975,3.358,-0.14525410159247884,0.6815041733297592,0.06519583853483359,0.7142848243819993,7.795830735392548,-6.113125621037976,10.41696653036367,1.0059301677742725,0.195775437319796,-0.17248390871058525,-0.54206402755971,0.2725390070239241,-0.7327183879685996
24976,3.367,-0.143993647988466,0.6830368112380346,0.06383828749992247,0.7131978805926367,-5.6639888671305245,-2.0283526641691143,7.9536482586122705,-0.007264600560825255,-0.3247925199096136,0.13002480598118177,-0.5398957459493975,0.26752248509068877,-0.7288898461836681
24977,3.375,-0.14510919711218775,0.6839558568320131,0.06252279154358636,0.7122068571393009,-7.41475171308986,1.0917794948926827,7.0317820539236795,-0.0510542361522614,-0.26771160274298056,0.4410906227414699,-0.5374283803589083,0.2679095728909574,-0.7323021274602293
24978,3.383,-0.1480836666984677,0.6858197235583825,0.06115196808017451,0.7099175805932424,-6.192949086011504,3.100666360907875,3.023278267057081,0.3144271675418988,-0.6092207717972736,0.8277532850747115,-0.5466738731799464,0.26827502205417114,-0.7365353977539961
24979,3.392,-0.1527117474121603,0.6888700498228016,0.06083734072152836,0.7059999961992834,-5.013558814025093,1.1930839324896958,-1.9314870613704456,0.6693753052977139,-1.1122340109870497,0.9803308229633237,-0.5487246305039397,0.27060957706823957,-0.723674484528657
24980,3.400,-0.15804309091925864,0.690838391690678,0.06051263258775454,0.7029245473564171,1.7983747005719637,-3.800639889040086,-2.10260932508335,0.8924534357570083,-0.7680855454558919,1.0749515913107444,-0.5554982978694645,0.2664597943294198,-0.7319078637600891
25010,3.650,-0.19564189284856287,0.6612517628895156,0.12511067319979902,0.7133145696602812,17.806036587704806,-3.9092640361932007,4.569264843559399,0.6071358128755211,0.16853410551925996,-0.17945595359717426,-0.5191276898346209,0.0672005725905819,-0.7631131773573087
25011,3.658,-0.21873871150988045,0.6598053317443132,0.13166800584058685,0.7067346294945062,25.819928798659085,55.89183062083604,-21.920691405532104,5.130946369758461,-0.48933534138742246,3.126418206081099,-0.5254276097191777,0.031355214443728054,-0.769429096686289
25012,3.667,-0.23488323092585114,0.6593079402696782,0.13153752846651706,0.7020262006023053,14.575771820543693,37.72611071228822,-10.716811705133914,2.7364154629203767,-0.22904802730172036,2.9579729485263897,-0.5312861046892295,0.03452765713613879,-0.7695673153786293
25014,3.683,-0.24991912817713446,0.6579436618958266,0.1239620140781236,0.6994883746053155,2.1055820081082883,3.4831613879490013,-14.370201564084153,0.6493591367895354,0.3113058039072423,1.9149738454608545,-0.531469086046702,0.03453366618179751,-0.7776292722852456
25015,3.692,-0.254960492713869,0.6564601300927952,0.11419784557234564,0.7007239804803931,7.345821459344909,-12.587468064026146,-19.16257869015936,-0.7678605667314724,1.1150912871517793,2.303791637336788,-0.5262887528863922,0.03359239053047994,-0.7846455209197695
25057,4.042,-0.19760330785853417,0.6511411816936381,0.09357680371435563,0.7267815875712477,3.745983339032615,-0.6844768800222693,1.1404540517245996,-0.30430140003067413,0.12020124968783223,-0.1946351939455268,-0.5186052909143626,-0.0017324567359755408,-0.864147014937515
25073,4.175,-0.20654842953995362,0.6533805052807005,0.11769273302788691,0.7187350570037211,0.40086309360066663,-1.2074770299071678,0.21612538030035877,0.3605469890887491,-0.1552958718977385,-0.12401580811756034,-0.5935676671576062,-0.0695811364219309,-0.8629545595962737
25074,4.183,-0.20621734795278102,0.6530145562432372,0.11903768586567928,0.7189411826300631,0.4084954219200997,0.16004955840411286,2.075480754765728,0.200245915959127,0.03218939633710977,-0.29385395459817887,-0.5942682195482296,-0.07629988768234398,-0.8671578607513368
25076,4.200,-0.2060490865180613,0.6512968515091458,0.12194501495470118,0.7200594409401515,1.05611129230064,0.7696141614568504,2.293207301395099,0.26629950731849467,0.17301204429014397,-0.2981107046263212,-0.5947366681333313,-0.07881956988416884,-0.8697737358629173
25078,4.217,-0.2077100980167068,0.650731600500041,0.1268567120426969,0.7192442380042133,0.9180320238815337,-0.701411849727131,2.3741709558657176,0.5831131767237827,-0.10215170078304878,-0.24238217017030292,-0.5970233507214838,-0.08946209696711546,-0.8579965654796886
25080,4.233,-0.2098934094552736,0.6533986137384032,0.13596321800565928,0.7145131290476893,0.6253694000757908,-4.620257149383395,1.6508822595108463,0.9637894347825763,-0.7791824791214149,-0.401094488359994,-0.619768525333943,-0.10591215500859034,-0.8527978223340076
25081,4.242,-0.21145749862995572,0.6550258779322338,0.14256487461442835,0.7112679396953311,-0.1867288024707847,-6.087748179199434,-2.270678781112323,1.4016437255037513,-1.049526000437804,-0.598814217669112,-0.619062327444496,-0.11533571565858473,-0.849338620014078
25082,4.250,-0.21379349072550152,0.6562596827801669,0.1502844696392267,0.7078348326170001,-0.038238485239485864,-6.3192811226185555,-3.219278879734069,1.7396538776109904,-1.0407952507428153,-0.6491295245735099,-0.6391895598747495,-0.1354306549075989,-0.835219126315737
25083,4.258,-0.21672933075210798,0.6575809218621839,0.15865917057363155,0.7038771171074618,-0.25097798309992675,-5.675941156974142,-3.5520711490515415,1.960330643456265,-1.150911738066544,-0.6252811787212562,-0.6390290238208995,-0.14463061630802626,-0.8241987905658898
25085,4.275,-0.2247990349005264,0.661545944719786,0.1758812087304978,0.6934609991543124,-0.6833366160240955,-3.7022571118574197,-3.974601838872,2.188607770917792,-1.4374672612110464,-0.39678519142001634,-0.6655825482904861,-0.18566800303013437,-0.7997388717178935
25086,4.283,-0.23001040965059444,0.6641788894564498,0.183453073750574,0.6872456503930957,0.023451414556828355,-1.46612725122674,-2.636132852200891,2.213817114295181,-1.6125330384337868,0.04046519487186121,-0.6797974662801396,-0.19204774897668772,-0.7925747761345948
25087,4.292,-0.2358201684568917,0.6666202655357539,0.19007733670484583,0.6810850723640898,1.576622078794197,-0.6152361886148277,0.710969623475566,2.162170330528912,-1.5009542839964354,0.2827770440178309,-0.6864279719470034,-0.2085050198971809,-0.7874978116184932
25088,4.300,-0.24157751053277354,0.6694333665650838,0.1959961837945133,0.6745997109932029,2.5093029839338636,-1.3171216332272186,1.3548896381353905,2.0338207858071873,-1.5800526344637997,0.42093083639560147,-0.7031819144577912,-0.21255021082966585,-0.7674765073068351
25089,4.308,-0.24674602860258313,0.6729232623450513,0.20131560616674363,0.66765463158542,3.7045110049117214,-1.1421964430393472,-1.2229061432761545,1.8244989634356503,-1.7583764092874956,0.4769202029329958,-0.7142610547516364,-0.22293427810131353,-0.7552851764808659
25090,4.317,-0.25180942455614114,0.6764607758700818,0.20631047714177717,0.6606275951210974,6.2442005386591,-2.0288051142761234,-2.660341135755513,1.757472059734641,-1.7661710185386144,0.5197230534344063,-0.7309577759254462,-0.23623954113309129,-0.7428058682831027
25091,4.325,-0.25743962524765673,0.6790506428310563,0.210642283650791,0.6544042268823262,9.392759063899028,-3.2825582545037593,-4.6194306748396174,1.7621183174261368,-1.4206681182965972,0.6321931875809661,-0.742551039719739,-0.23797422335528187,-0.7272102800056568
25092,4.333,-0.26410560454849785,0.6801749824348815,0.2136053782358485,0.6496021592517235,11.905770622501189,-4.023565110201072,-5.719047267529924,1.7370315925274264,-0.8285395567747306,0.8735427846432918,-0.7516218963629631,-0.2500388813170525,-0.7222816660601884
25093,4.342,-0.2731386744437671,0.6762155795800242,0.2099712787178835,0.6511833970318435,22.310588219404764,1.8131443270816645,27.35551666210078,1.0951537495596781,1.5211059568916965,1.7292794497829984,-0.7467050137753359,-0.23795979759724528,-0.7267537141701822
25094,4.350,-0.2854880167524699,0.6665464360252114,0.19740606189118212,0.659729708017947,36.37469979132667,13.236529886807142,86.99885744810555,0.27016311466287934,4.259201486752001,3.0403762752683945,-0.7255474001572757,-0.22564630036991312,-0.7479630169572379
25095,4.358,-0.2966761655961455,0.6629919310670818,0.18940270595315487,0.6607204908921271,34.233550159271694,91.1873629065069,81.50861544866265,0.7449072484760457,1.718837425341715,2.855532718514611,-0.7271766504401587,-0.20910367873456004,-0.7584787652512175
25096,4.367,-0.286514893410176,0.670457508152103,0.16840905753554428,0.6633508385135415,33.01579828879535,70.63562762397348,11.611980103614991,-5.583860256044267,0.2121798266900493,1.9249605887269414,-0.7307560509398054,-0.16301851089642433,-0.7693940107163193
25097,4.375,-0.2682698313366168,0.6718588314752286,0.13792419240991002,0.6764716736947959,21.04944280342766,-2.431686504918067,6.2529542457362455,-8.404446022159954,3.2131818773805048,1.308088534465726,-0.7146719249823147,-0.094735864757151,-0.7976697198083084
25098,4.383,-0.2493059038460363,0.6762322544235707,0.11305952726935427,0.683940090708504,-3.177416028468532,1.6320250390622084,19.28060791404835,-7.621119127706272,1.449063367147145,0.6898463033541428,-0.6937561739306665,-0.04750385927624596,-0.819180205768614
25099,4.392,-0.23721977771130506,0.6812487897345445,0.09601454068943323,0.6858630122145488,18.86772100177127,-24.02965698057651,2.7675407979637168,-5.101503250443473,0.15844967261917092,0.8408345678464992,-0.7064982916754101,-0.00995026275655557,-0.8130592505218394
25100,4.400,-0.23083228502513897,0.6849329058183007,0.08359141985984629,0.6859998872034798,26.82594079281799,-38.46556540646585,3.698031701624306,-3.296150747998357,-0.05469925076427012,1.0747283670831371,-0.7031241717815695,0.018064367048847767,-0.807266833778682
25101,4.408,-0.22399381866865734,0.6905224023761005,0.07270081040931856,0.6839007041821202,29.399239357178747,-29.59298262445097,8.863046048793858,-3.17357794043529,-0.8231015722983877,0.886475615714449,-0.7121574158653573,0.04151327479908955,-0.8072957023403614
25102,4.417,-0.21571277417975024,0.6958519830730979,0.06305635540784423,0.6821157619873572,33.37556722929089,-21.649055016749507,6.812023976190349,-3.2105497724502703,-0.8083495939014471,0.42202167176974703,-0.7207515607895398,0.06881744108176066,-0.8008403266692107
25103,4.425,-0.2072080757832944,0.699761414440285,0.05630172348243196,0.6813434465257768,33.50654432993379,-12.808694783121469,5.010336212402133,-2.7136811429729604,-0.5406519393652529,-0.16706365792006955,-0.7202340353458756,0.08360253802450876,-0.8046929735480471
25104,4.433,-0.19827566305164884,0.7014092081034573,0.05246774471618902,0.6826119102341439,42.138961604874446,-7.294567784689959,3.9868853048277697,-2.2363471615154906,0.03961067093020857,-0.8468307940039499,-0.7229658365183915,0.09184319663664235,-0.7986066636612194
25105,4.442,-0.18795634776527173,0.7003137632280372,0.04885835684098346,0.6869104056097304,50.543466849896035,-8.90648936025961,3.413859388979002,-2.3359398186866698,0.9852595844748145,-1.2616268177415124,-0.707270977081266,0.09962944387062354,-0.8077551380213576
25106,4.450,-0.17899477311337095,0.696449986043619,0.044768751200833325,0.6934796659267333,52.9460969499145,-19.742718032570124,1.327210332812073,-2.0956361472026566,1.8537527463104841,-1.068687054521717,-0.7023832797509115,0.11377620608082231,-0.8083804550243912
25107,4.458,-0.17497627453836762,0.6888703191288174,0.04298877604834582,0.7021345682316892,51.05771745426524,-34.44584976458528,0.6872369928573421,-0.7371974533974817,2.767377487991266,-0.7440741281164475,-0.6902951091180559,0.11206556004126664,-0.82484746952444
25108,4.467,-0.17679120417284866,0.6803272953940517,0.04517380357658267,0.7098302393807645,41.93921890805682,-40.20770006015292,2.392440576801146,0.9396268621804361,2.6527692162304857,-0.40364585997257646,-0.6668084133553813,0.10307837351130938,-0.8312427543351529
25109,4.475,-0.18088798734507655,0.673047553192536,0.0485090073133408,0.7154952154873314,25.35484571712572,-34.50597283227361,5.328350762438671,1.4876563118032031,2.0752637963429112,-0.12248196481387676,-0.6633112138044986,0.09324367875727235,-0.841672717986131
25110,4.483,-0.18597556845558127,0.6678077724442865,0.05118895645773878,0.7189058058865511,15.831994622264178,-24.441431824311966,13.066009303551127,1.4659079671351425,1.387417136786628,0.25254734284567115,-0.6418246389475208,0.0810203374570993,-0.8418811676372471
25111,4.492,-0.19463162586804053,0.6607612663236249,0.05441762283147214,0.7228774456737014,14.120113150443585,-10.55072614587315,18.094266952731935,2.219892172370713,1.7961260885419277,0.7422540849901994,-0.6304853770349589,0.07180233879855669,-0.8561779298292423
25112,4.500,-0.20629881402290656,0.6505943216053851,0.05881161284517385,0.7284977846377576,18.578365248029677,15.955583793360349,19.943471362462578,3.0141757367559805,2.575157449171338,0.975780537369285,-0.6206400016588639,0.056835716046991724,-0.8666522959493623
25113,4.508,-0.21377794997706778,0.6402246616966752,0.05866012498144828,0.7355068731127814,23.790767516496384,45.64561927454617,25.230457739489218,1.5665511067752749,2.997740050033962,0.9085203756639798,-0.5932332688195546,0.06025098895930526,-0.8748499532065586
25114,4.517,-0.21293047202196982,0.630833396446067,0.051810159851013955,0.7443289241652731,30.58485892790016,44.90917517793275,30.00667567162724,-0.9866429877768099,3.342242649221582,0.41481280036593254,-0.5674980045893034,0.06547427671735184,-0.8879988181726193
25115,4.525,-0.20441506977866655,0.6211932869405953,0.03972708510071299,0.7554833805033194,29.593337522212675,14.913290499639988,26.35364263694556,-3.092459777805642,3.9344888521896415,-0.24866216430128033,-0.5354396547187682,0.07763149827300068,-0.8978851010593829
25116,4.533,-0.19267585069914844,0.6111027458725358,0.02654857180600113,0.7672839265092606,18.131481984684328,-3.6758087879900825,20.163068904395395,-3.7714408196400817,4.145982017489112,-0.698039207919659,-0.5150740527675056,0.10507631063595896,-0.9112430145325282
25117,4.542,-0.18263895214194512,0.6001893288051174,0.016292607479811795,0.7785565706424064,10.967638200556648,-15.05459823038869,17.265539850569183,-2.9307002562757005,4.1016321323794545,-0.7984434386931619,-0.485657604353046,0.12146024893290962,-0.9268921219261128
25119,4.558,-0.17638654093446246,0.5761745500374912,0.009440282100609204,0.7980110006385444,4.333407330835982,-20.627859892110667,15.068874783843249,-0.6086822464247946,3.799570395949852,-0.45642056051920427,-0.419610609463483,0.13511653536986457,-0.9436482148399129
25120,4.567,-0.17912823087044275,0.5648092043644024,0.011154137932876309,0.8054683263651344,4.1376411506882125,-15.2221164961373,12.204896348045768,1.1614464604585901,3.1416871434454987,0.017415706965617228,-0.40711472297120244,0.12126309353269661,-0.9494945433442672
25122,4.583,-0.1900999695916524,0.543123366507373,0.021994343784919802,0.8175544380384842,2.5669711402874933,-4.8122798090281425,9.877917297278206,2.24627848140319,2.698367290630119,0.093157348339956,-0.35453727613946284,0.08721132447353926,-0.960790366816464
25123,4.592,-0.19608311720162278,0.533267991034476,0.03063289684246655,0.822337088132104,0.4410971346855278,3.0773232186527113,4.867222561981804,2.8796077358131824,2.1978202237242894,-0.1984584765822,-0.35027398508108554,0.0623462948901322,-0.9756553413627539
25124,4.600,-0.20087123741919607,0.5252248278723661,0.0411820527432,0.825889620164814,1.4991958294022154,6.209647689946348,-3.5915360276832664,3.046786379001614,1.6023834868054991,-0.6140514376552062,-0.3334476369154436,0.036041107290924974,-0.9730403784932475
25125,4.608,-0.20516938351806707,0.5189049358299074,0.054708771589769924,0.8280399398273701,4.306366183609915,2.7586693512464597,-11.053684265937731,3.4885714848737717,0.9428968114247083,-1.033262183103608,-0.3258316589345275,0.009720290100321601,-0.9792879868141764
25126,4.617,-0.21010682393978075,0.5134598747770195,0.07058229430596887,0.8289947039990129,3.188655818746328,-3.707463543654617,-15.852203672676719,4.021021852975541,0.5206824882174708,-1.1363599348836184,-0.3285431490671195,-0.03194461709637795,-0.97587875146397
25127,4.625,-0.2165120866959083,0.5083428801224199,0.08735456804307376,0.8289024140304059,1.3950007137030827,-7.735364784324703,-17.55670475561834,4.370350800584607,0.2939447212393548,-0.9135996957594127,-0.3202811860179972,-0.05524205438723559,-0.9707308720198617
25128,4.633,-0.22363701082208368,0.5035455602997593,0.10334872652540882,0.8280986636980772,2.9264461082496243,-7.205216348216353,-18.06141962814312,4.317199005444282,0.19583283316142805,-0.6265337951298605,-0.3191054360321545,-0.09854307116658877,-0.9648012416948125
25129,4.642,-0.23017215957787351,0.4988476132974491,0.11619433081076638,0.8274483144886667,8.108308804501581,-0.4832265714046381,-14.141339294340911,3.6006482413457923,0.3358949038000407,-0.36626815352165926,-0.31814156078084066,-0.1219414887637025,-0.9631253081239943
25130,4.650,-0.23568541410044264,0.49348892377584863,0.12446268098232646,0.827907065275777,11.744812676108053,4.771498399808339,-9.806856177726182,2.589105504166838,0.8212322038507491,-0.07175975063358304,-0.3055092069540628,-0.14490112457405996,-0.9547789494898026
25131,4.658,-0.23970296037534047,0.4874476941402391,0.12950829011679194,0.8295570137463046,7.208313288626765,3.72351852768975,-4.672709138677218,1.7635581450397015,1.230176217941057,-0.06285246105896344,-0.29981181353178354,-0.15792268777854435,-0.9655865322355858
25132,4.667,-0.2415647934404108,0.48055442032235757,0.1336575312570386,0.8323758550180373,3.0554246270994434,0.33285034898583393,-0.5152118436380179,1.3534657406726414,1.538358232450058,-0.4627075835397187,-0.3001896429992126,-0.1674159695520025,-0.9479667458325609
25136,4.700,-0.24079282686969694,0.44397841439128366,0.16741864843603532,0.8466835171647986,2.638733728603549,-9.597702513536735,4.506834011643285,2.070442599014117,1.7903572184282674,-1.4849124423507454,-0.22477335630712356,-0.2445163046248728,-0.9446271428176279
25137,4.708,-0.24092009067359085,0.4349945304976765,0.1830411544881237,0.8480761782473255,-5.075823870022305,-16.374397237881162,7.619780504553053,3.61929933610635,1.1276193409060473,-2.0963540955468374,-0.20726018194888837,-0.267468727556212,-0.935999712183742
25138,4.717,-0.2402445171667813,0.42755315067710253,0.20034384533218466,0.8481410371836142,-11.37278429168838,-7.080521987748566,9.240182088372519,3.8658779130331626,0.5619711933816498,-2.294977042633085,-0.20122233558880084,-0.30336216818947476,-0.9273210926729935
25139,4.725,-0.23884604897818518,0.4227225214522284,0.21730971219025264,0.8467790288690258,-5.922328740974344,9.404708383253368,11.166179811258788,3.6311813260621393,-0.14190769795129896,-2.2264142726466325,-0.19909944622365983,-0.33726727200154716,-0.917509675360019
25152,4.833,-0.24776316164726175,0.4479759713808792,0.25536695287335975,0.8201942844083259,12.884162569992409,14.322199837847617,13.199970837213678,0.6649618806202728,-0.7331325521283331,0.02775826972838192,-0.27664432498813496,-0.38798306768486984,-0.8655498249477117
25156,4.867,-0.24106228145365394,0.46371658859616893,0.2263446446439309,0.821963505127876,11.759632156409308,4.263944358370565,9.891602880830611,-1.88698385995387,-0.4346384237507263,0.6512533406179982,-0.29697750270268575,-0.3307745175362811,-0.8886451685509988
25157,4.875,-0.23895430409787716,0.4670626433616554,0.21920128737656489,0.8226202789510961,9.483444476196288,3.913505588003353,10.73209813576641,-1.8950173786632414,-0.3219690172737807,0.5105602576716591,-0.30549929556709604,-0.31962829275541366,-0.8917260774628081
25159,4.892,-0.23358043810370102,0.47365617054689757,0.20461600557118767,0.8241494411223145,7.36538271844368,4.7420181248671245,8.734965046884849,-1.9627683295667926,-0.2980988148086943,0.41636256722094833,-0.312723891184032,-0.28948468004853284,-0.9048845803412181
25160,4.900,-0.2306463668762471,0.4764631964253191,0.19743754092681548,0.825108170685352,6.35100265989565,5.014636128875154,9.158048286142192,-1.9747791198594062,-0.2103792418734214,0.3132223282429549,-0.32931319230771117,-0.26999080730361685,-0.906563655072501
25161,4.908,-0.2272796926380162,0.4793350238856658,0.19033316378036183,0.8260479180751291,6.687982930881005,4.855786767627443,7.884298632048257,-1.989189788509064,-0.23180282285810738,0.2316051408747036,-0.3190132313130042,-0.26162272453587315,-0.9125949528535736
25162,4.917,-0.22397792697520674,0.4817307045172577,0.18353898547296985,0.8270930161503895,7.736834221829579,3.280163834332871,6.368173648217276,-1.9156596063725257,-0.14806321414579451,0.17691211614005056,-0.3182364871374614,-0.2456751603589596,-0.9184340270802684
25163,4.925,-0.22081937815487523,0.4834485644423631,0.17729048965061378,0.8283021007152871,8.464573797683206,1.5465843712663834,6.970826203327469,-1.7459126607812565,-0.005145455170141774,0.11275136440365006,-0.31384325886373926,-0.2261307974609156,-0.9182456192321372
25164,4.933,-0.2177965520598195,0.4847296390091896,0.17187965063003174,0.8294933542085636,8.534045889076852,0.7387692531798751,7.0629742838880425,-1.556832708221263,0.03340792970402677,0.017973707439843226,-0.3135455885415822,-0.21876770242229454,-0.9253001166351683
25165,4.942,-0.21494737184168983,0.48553358380975575,0.1674156303107941,0.8306785016231281,8.939991268227756,-0.13115284386031087,6.845688081108645,-1.3072446187561924,0.09840097473280014,-0.07039709808906042,-0.3159846170388958,-0.2002139014953366,-0.9256227751188294
25166,4.950,-0.2125458026119099,0.48569112911619716,0.1640218709716775,0.8318805411432841,9.34891107952173,-0.38489898748141665,7.273346938580515,-1.0261287755316089,0.18365296070258005,-0.13932051727215847,-0.3213043725617343,-0.20334427074699715,-0.9324097293656429
25167,4.958,-0.21028712204322336,0.4858470909038428,0.16136266025121473,0.8328829584279549,9.069228646004516,1.1959937111473087,6.4947510716819306,-0.8386373983752442,0.14052867203609287,-0.18205658032922817,-0.32133229006270175,-0.18735943834163257,-0.9287300935002808
25168,4.967,-0.20844723724464362,0.4857703707234277,0.15915865963682976,0.8338137785350557,9.819351684331142,2.2514946789036165,5.6218696180361345,-0.7008335188929065,0.16091672101308407,-0.16449305300220882,-0.3100922306558174,-0.18446709409757564,-0.9299515772764113
25169,4.975,-0.20689093640358736,0.4850270575838696,0.15704587043783833,0.8350338247184973,10.507714135098183,3.354573010834481,6.508659033410167,-0.6104486225081509,0.344353402715563,-0.14632834814665044,-0.31660574900286126,-0.18330583069676973,-0.9402939992700081
25170,4.983,-0.20529893079443307,0.4840382552823423,0.15489235946213817,0.8364016220800508,10.71231551737321,5.338380534759546,6.446099845682037,-0.6329867556855184,0.40165087706583497,-0.17082484730369185,-0.3068692619808708,-0.17977394788680398,-0.9364164542520383
25172,5.000,-0.20201632839826322,0.48030289282781646,0.15008934760748255,0.8402212339238257,12.389432791977923,4.730168061451681,7.213509598225747,-0.6489544177994695,0.6628169527612848,-0.19612073803448854,-0.30049639721964183,-0.1657065273458064,-0.9397149550930326
25173,5.008,-0.20031930434948714,0.4774887400261217,0.147886821930634,0.8426186369600793,11.916334308886517,3.9211161372478953,7.557080530082086,-0.6125156664856292,0.8853084325482703,-0.2930196828013828,-0.2875184909791988,-0.16610203185845288,-0.9447341408795462
25174,5.017,-0.1982384925938304,0.4745007684004297,0.1457303517428011,0.8451705067159216,11.152690721249456,3.7727782647662975,6.642237654484335,-0.6201473223094043,0.9406942829568267,-0.37660710612533,-0.285851482235165,-0.1630077270018838,-0.9391951055095781
25175,5.025,-0.1962388187448548,0.470754983478,0.14365589043572602,0.848081987010319,11.078793243696317,3.488133872040708,7.438714180706224,-0.5874210209917139,1.1249336226122049,-0.4155975232200841,-0.27527939715166916,-0.15377170120636496,-0.9489138071763785
25176,5.033,-0.19411650496101135,0.4667476134592166,0.1416052688347202,0.8511247826670859,10.527513176619397,4.531290454506734,8.251776548181915,-0.5726108146743337,1.1992720626947788,-0.44871723688618087,-0.2566793315874998,-0.14735589086472023,-0.9548244271373628
25177,5.042,-0.19193575210206115,0.4627767875611674,0.13942254606041676,0.8541426494500868,10.473654517801489,4.71805619670461,7.842912863720043,-0.6231509045710951,1.182532295042659,-0.4515256969152666,-0.2564683597398092,-0.14649395688260386,-0.9504517263649642
25180,5.067,-0.18573573028408474,0.45091076688492066,0.13078891451400623,0.8631778372058323,11.747602881059048,3.9580888417829496,8.1858663183486,-0.7365613557007861,1.2220275474374673,-0.3401101773528073,-0.23177235083792638,-0.13174492433494722,-0.9553411357928191
25181,5.075,-0.18422424137272228,0.4454530792279824,0.12691696599963181,0.866905454382658,14.671322287892586,2.2272359724348396,9.482203229954207,-0.868629099597738,1.6466735443792124,-0.2002003867248173,-0.2097469452779748,-0.11680956076617456,-0.9622103488646897
25182,5.083,-0.18271714907415926,0.43972149585288234,0.1232153897309145,0.8706764136305601,15.203990251525454,1.951185514116591,10.286311370438218,-0.7902951056731602,1.7229804473676926,-0.2088610973628056,-0.2038971602802607,-0.1175055985308702,-0.9609241217371479
25183,5.092,-0.18159311508111187,0.4337386556327446,0.11977964713582807,0.8743841005513848,15.933815887351077,1.6439816682480672,9.744496102231922,-0.6965309530563145,1.7566002673109722,-0.17024182730623563,-0.18141817237755034,-0.10023688378138873,-0.963218030786809
25184,5.100,-0.1815913363400882,0.4268956917874121,0.11731118399608684,0.8780790061315691,16.099092969044687,0.6337744047950846,11.03245210382836,-0.3225785217772268,1.9330965150078632,-0.04814313457157975,-0.16523947828533125,-0.11221739486165898,-0.9717785742641548
25185,5.108,-0.18314632284441476,0.41904483287390804,0.1163021579486671,0.8816647098113495,15.305536913097848,0.5585361079339989,8.689061691605866,0.17758910284271115,2.0995933910191065,0.0985320130135776,-0.15480151771936992,-0.10612255257575862,-0.9638191397067155
25187,5.125,-0.18609536296014928,0.4007578919139213,0.11135049273022594,0.8901475696322358,12.89638437754097,2.2696778291797575,7.596288996581589,-0.08681054150579644,2.5096715385131447,0.18773699712030228,-0.11422650065559929,-0.11144201542776214,-0.9699489301646957
25188,5.133,-0.18737574564205908,0.3915758698246607,0.10737608948616216,0.8944434266753839,10.35919850813037,3.4268334085369276,7.8284390281833796,-0.4460054623752104,2.5664530916363164,0.27633876853124684,-0.09447950549339296,-0.11157785629575012,-0.9661312799171011
25189,5.142,-0.18831073075889398,0.383121229578287,0.1027823696471953,0.8984391891592777,8.899759166304516,3.0133991908486744,5.500403699603813,-0.6148601490223042,2.415855870331619,0.30451827260242026,-0.07908317367577625,-0.09845050757271052,-0.9681122617287575
25192,5.167,-0.18930670520710732,0.36193262087236305,0.08609593313359863,0.9087107568472746,7.965333407079453,0.12796495135296926,5.741872588971488,-0.9324042683093456,2.0885603319134924,0.3129471340304186,-0.03244682513942333,-0.07625062160485373,-0.9686588623972341
25193,5.175,-0.1893372704040832,0.3559725004195692,0.08060832111039803,0.911557609561093,6.354305509451353,-2.099972485755829,4.852211288118431,-0.9957662469233011,1.7779267928084814,0.2678891878488497,-0.016807627479541416,-0.07704042679678717,-0.9704708967188027
25194,5.183,-0.18910548691971146,0.3505052139936505,0.07538902619769988,0.9141672191175348,5.527606675489726,-2.8370194081191196,4.438840533776256,-0.9580149285750154,1.6485934401139237,0.22040261526839408,-0.006831019808819454,-0.058349581168481685,-0.9660625769613905
25195,5.192,-0.18869647825736574,0.34534608751825024,0.07045676011195202,0.9166054570444317,4.937268754165277,-2.9902967442550255,4.519970914141551,-0.9339412214498886,1.5426918361517417,0.1557595257062618,0.01753322673342413,-0.05425028858278999,-0.9594040250479989
25196,5.200,-0.1880221045934752,0.34068412439042495,0.06566310484904224,0.9188418646503619,4.900555995369985,-2.9725635906317462,4.0888435602886535,-0.9322108482417236,1.4165876117883367,0.11130793473488472,0.018301032912409157,-0.04510682638114943,-0.96406503635506
25197,5.208,-0.1873129839282855,0.3363491589062592,0.06092996182182192,0.9209075030139154,5.105574857916404,-3.2233497419912474,4.126088399623209,-0.9461717936111229,1.3183331341503932,0.09655765264015262,0.026880831498684955,-0.04548790513575935,-0.9686295085545887
25198,5.217,-0.18638866315628327,0.3324050055008338,0.05613604657702979,0.9228298450090925,5.192042178551432,-3.2691984159053655,3.9340594746207027,-0.9802768963895901,1.2298389997595185,0.07588726044952389,0.032283856229796036,-0.03462177880324565,-0.972817761780554
25199,5.225,-0.18534002073763586,0.3287229170722388,0.05140655589754591,0.9246338121198271,5.117967489729261,-3.6072648481286076,3.3314786461857735,-0.9982890490286858,1.1498570410275628,0.03710517461209889,0.046354963853488314,-0.024995053707379523,-0.9610270884173878
25206,5.283,-0.1769473677325039,0.31571076168551676,0.0216414090194643,0.9319592230479516,4.764575251075612,-4.218165128911985,3.168326745423984,-0.9642193133539123,0.6718700738081181,0.02058177865301674,0.0834490066207847,0.027085179943760012,-0.9588654672428987
25215,5.358,-0.16715997959969528,0.3355701801825104,0.01784334868083708,0.9268936348364689,5.313093333572917,-4.96506801343739,4.111521634598173,-0.2696203614190505,-0.5191934797813778,-0.20218923874468214,0.04411515110131032,0.04942211061296435,-0.9554275458116541
25216,5.367,-0.16683320779363248,0.3389437358673123,0.019781363826992516,0.9256848936537424,7.045357496458692,-3.3562475472498727,5.140427470004345,0.22783758832022308,-0.9518874164094792,-0.2701389934601829,0.03562083795593703,0.04263123056236835,-0.9621303892173869
25217,5.375,-0.16617777426904037,0.3425585662024115,0.021787513218858502,0.9244262438551135,7.192055858673158,-2.675448044596246,5.357253810450563,0.25614279331440576,-0.9784773227961316,-0.27874603783209834,0.019316976660122977,0.039737682484951894,-0.969251934347567
25218,5.383,-0.16562467339601547,0.3463506404165196,0.023916308003524386,0.9230588885098342,6.956067305512643,-2.010888216560003,5.628329032754229,0.27455110634257146,-1.038785487682997,-0.2772327622411724,0.00778078830109338,0.04461956738355873,-0.9611791117671525
25221,5.408,-0.16416299348076438,0.3593678885143796,0.03131447830646259,0.9181092722135779,6.637434945745216,-1.4993002808261693,5.090031278887767,0.345488204477257,-1.1892787161577059,-0.26684324889746813,-0.008942955492441323,0.03266670398600206,-0.9773177323590357
25223,5.425,-0.1637975807274583,0.36869646847993365,0.03721264311351075,0.9142474970546892,6.714933201433372,-1.5647303911578305,3.7703978844150536,0.456533181628077,-1.3103801531508181,-0.24607702093541833,-0.021222014880496902,0.023911533417989718,-0.9678704488044226
25225,5.442,-0.1639062092408549,0.3791329788413188,0.0437924552099169,0.9096566164184641,6.688396529801874,-0.06663506420661339,2.8266136361162473,0.53969756139762,-1.4728991694034526,-0.20318930038770572,-0.0541867633181712,0.010504086246596303,-0.9672357513620948
25226,5.450,-0.16403521070933844,0.3846772292246535,0.047246929895358565,0.9071293218604776,7.608552755039285,0.5173592369630399,2.0270928780129034,0.5665300935547856,-1.5748536631478582,-0.19855762408878813,-0.07386416988064834,0.006949360966216093,-0.980225451345869
25228,5.467,-0.16374625643369167,0.39650304284477317,0.05394771799309486,0.901699586471085,9.399116283515225,0.9448846770510113,1.8296540982464444,0.5171832850698616,-1.6629535010345948,-0.22652294975860704,-0.09591690012466762,0.002378833698755381,-0.9697547379956509
25229,5.475,-0.16318302448824837,0.4025325137004112,0.05704699848800826,0.8989352122908555,11.316653051072402,1.3729447667751649,1.1748560827335834,0.4019965929189785,-1.6973362977396054,-0.306895396828069,-0.1100428395512288,-0.0038590623341512582,-0.9743183651904075
25231,5.492,-0.16042878837063387,0.4142798236587688,0.062462522121979114,0.8937187840150562,13.882469718400843,1.5329060987056988,1.3842434476075454,0.25832972727696873,-1.629433039488723,-0.4329593937507578,-0.136430774080595,-0.000600065093521024,-0.9716838483970842
25232,5.500,-0.15840719765005692,0.4197866452639994,0.06489827323526119,0.891333016510515,15.982773857337294,1.7097483877529605,1.3965022243327596,0.13038742190111366,-1.534140167040503,-0.5686922881517062,-0.15253254680253486,-0.009191747110831797,-0.9732618425066618
25233,5.508,-0.15592277639407273,0.42510226890392605,0.06731599464485598,0.8890695730027385,17.10199159288125,1.8523201960924562,1.015298130413526,0.09982498680628232,-1.4743788069604693,-0.6573465213966154,-0.1618603146892472,-0.0038650713798099806,-0.9666509372120989
25234,5.517,-0.1532386294004416,0.43003143627141655,0.06988882418744387,0.88696473353314,17.355397629727605,1.5454930463817702,1.09710684724165,0.11456090581649538,-1.3888462566433872,-0.73370944138864,-0.1786387717069134,-0.003636666917943771,-0.9755781407771449
25235,5.525,-0.15036838029787464,0.43470588259644494,0.07273993338177477,0.8849457881329541,17.262378152208942,0.9086423708117362,1.2634550677749898,0.17128946689328786,-1.3307541716917315,-0.8001010191292464,-0.17967363102625367,-0.0075616465738368955,-0.9678980964299002
25236,5.533,-0.14751543868187902,0.43924332432330154,0.07612142507209414,0.8828986499213267,16.643850859231748,0.3052064230155301,1.583437540961565,0.28236737159096725,-1.3274587152464208,-0.8608127614653092,-0.1911283651607291,-0.011301499041973563,-0.9705612593663686
25237,5.542,-0.14455291023924732,0.4437828686117857,0.08000041966037214,0.8807730437077551,15.671584298547153,-0.0402223405333793,2.005434148777965,0.38544391838680064,-1.3479945980622972,-0.9281800006319834,-0.2009401136810367,-0.01991361586297964,-0.9645190444168869
25238,5.550,-0.14139383439532532,0.44828855869807716,0.08411609764646498,0.8786180249984168,14.827881531295663,-0.16580167284051534,2.802102182932562,0.4081781317258434,-1.3591861788792299,-1.0010660982967141,-0.22122100536624303,-0.016669044380385994,-0.9623262754711208
25240,5.567,-0.13363100100762373,0.45680933119323613,0.0918923637439123,0.8746563805232576,13.253764589833885,0.6337995814679608,3.066523603428279,0.2938437707139416,-1.2863680742851942,-1.1308757158089617,-0.23858882005969692,-0.03754056689665659,-0.9579330628925297
25241,5.575,-0.12922781022259003,0.460569860741444,0.09487095361164806,0.8730263905532856,11.46218790909794,2.393080819311418,3.1481941898288763,0.043602982329379834,-1.1317284736745803,-1.1639852633775924,-0.23912407551797515,-0.03222831692367136,-0.9517435307121372
25242,5.583,-0.12467401474536545,0.46402436295070215,0.09672815318164996,0.8716544298158159,10.290871469843772,3.8615882542283955,2.767582658566971,-0.19364106082572893,-1.0028552736208585,-1.0734030366201908,-0.2423659325183583,-0.03025320202715801,-0.9427890985362154
25243,5.592,-0.12044905582224638,0.4672244040773344,0.09733817324316131,0.8704703677988089,9.114493540934115,4.848961947896398,1.9396781456076322,-0.41946467386221015,-0.8942766452228496,-0.8765683057628969,-0.25595644318516253,-0.032766875183324135,-0.9535650997243668
25245,5.608,-0.11442292933998582,0.47333449144191575,0.09378313395714347,0.8683700687137118,6.644341520313902,4.739554487274576,2.897952421009041,-0.7711129804996887,-0.7623279714743889,-0.35177701179156035,-0.2737841697160719,-0.018088767592490857,-0.9529129390004034
25248,5.633,-0.11105891237089661,0.4865334840648649,0.07654495176319855,0.8631870928288184,2.3186646221180283,1.315820295388589,1.1731010366887435,-1.4012213928847315,-0.9966337531037556,0.5387756512250492,-0.2975223774373534,0.015840382523355543,-0.9455470097147193
25254,5.683,-0.10228038134848023,0.5240215800250216,0.03804661120404638,0.8446848895506404,-0.6335008802496213,-1.8561189295665481,-0.7417566490362172,-1.6030871741989785,-1.528010355994194,0.6034485542634196,-0.3696975013858462,0.08996543030402816,-0.9255699233388586
25255,5.692,-0.10026339748614675,0.5312415890654106,0.032547233173254475,0.8406368435802457,0.624963813394876,0.5904513114583092,1.6147538632901606,-1.5203945475874958,-1.8771140786196896,0.3869782146199127,-0.38214607128054123,0.09997082648778506,-0.925960107540455
25256,5.700,-0.0984933056724081,0.5386575160674437,0.027721524374329915,0.8362886261382112,1.5775452095119082,0.6488620749093548,2.9899197155490898,-1.3361983758927236,-1.957376102881148,0.36667930218431816,-0.39223328190007106,0.12518687947636928,-0.9157905258688759
25257,5.708,-0.09744597982005411,0.5455741959806403,0.02408266760631849,0.8320295083817347,2.636386154596738,-0.3234237596079659,5.718477759565406,-1.0001138501522813,-1.8720439319917352,0.3493918270070735,-0.4049691795956005,0.12436942660172225,-0.9104893974468237
25258,5.717,-0.09669342724894485,0.5523414689630207,0.021459529267539888,0.8277129764563568,3.1634389109773804,-1.6559618910129976,6.357092855798373,-0.7487581755711246,-1.8659477397911863,0.2774291434495194,-0.4201512562010472,0.12674605505654085,-0.9045684751485559
25259,5.725,-0.0958995425916674,0.5586350374470441,0.019593966692875622,0.8236177809739705,4.226865314362593,-2.9491355819831506,6.134905633424344,-0.6021502577295393,-1.760689934983907,0.15954103444854095,-0.43198063675070014,0.13597126659410175,-0.8900313904236402
25260,5.733,-0.0949728980645337,0.5642665362753053,0.018837466276879634,0.8198954656158066,5.866819451009604,-3.8666282344251397,6.520638405591035,-0.381281660169456,-1.5966599638955017,-0.02039072335305422,-0.45152258831100095,0.14358681239836307,-0.8886949739078409
25261,5.742,-0.0936789064065441,0.5693038897994418,0.019104000818169438,0.8165490681560039,8.701808292734492,-4.391269662109364,6.561093449906002,-0.2277366371724857,-1.4513483364264204,-0.2434109460799971,-0.4617884572682258,0.13850537455396317,-0.8871571400649837
25264,5.767,-0.08414679253227031,0.5812028243052212,0.021050577388761524,0.809122652950568,15.002617167498059,-3.147622202624366,5.787064607573577,-0.38528166116217955,-1.1226666188025474,-0.6745945076250293,-0.4803810623498531,0.13230474674950757,-0.8822298408950289
25265,5.775,-0.07996923543420391,0.584407875977363,0.020171708048143763,0.8072579873089625,16.09261471410852,1.3827527948919336,5.239417166023721,-0.8269480234384627,-0.87284003760407,-0.6697736138406387,-0.48285669099749484,0.14465070699299162,-0.8777284563534173
25266,5.783,-0.07590374492932953,0.5872573826950679,0.018406609903456925,0.8056231033726031,15.55434188842495,3.4457847826572072,5.397891071509223,-0.9583348799039049,-0.7496287934769472,-0.5165491273113115,-0.49885024222235275,0.14147345908828174,-0.8613908514305079
25267,5.792,-0.0722011505425318,0.589664860327378,0.015880215578591563,0.8042575241230925,16.07460974499201,3.8709040463039828,5.319056971830901,-1.0548333993280972,-0.6202354841166736,-0.3451864423464114,-0.5007680606626114,0.1581891898200738,-0.8660518032553794
25268,5.800,-0.06878854871757065,0.5916996908372145,0.012654293787336322,0.8031185966451151,16.330795077765245,2.873184372326309,4.74990729115043,-1.1334778913844556,-0.5031142581634963,-0.18755316388505086,-0.5047104061976215,0.16199395819937512,-0.8613090887046635
25280,5.900,-0.06281257858432257,0.6030814984055897,-0.012426560243478161,0.7951055696276893,13.265200007181182,-2.0884747218253534,2.337551771485585,-0.48196721362909,-0.24857009070278813,0.20436193617687676,-0.5192736764404282,0.21146435372153072,-0.840410418900723
25282,5.917,-0.06573461322908636,0.6029710434531546,-0.013828505786385998,0.7949299678640582,7.920835169702971,-0.03262104543875901,1.7374926666791797,0.0615612420684149,-0.014960264567165888,0.3634113299663187,-0.5192478201371215,0.2028149686720736,-0.8438183808491788
25292,6.000,-0.07720221899660126,0.5951969749875229,-0.029281511295276282,0.7993265737131275,4.887687399509503,-2.056922547671641,1.240934939794853,-0.10822832377647812,0.22195094266171012,0.4387942393969666,-0.4959992384714718,0.22067152800097636,-0.8510089117656584
25296,6.033,-0.08103233546555001,0.592950024656058,-0.0326474745801432,0.8004862092958992,5.323518789574933,-1.503810335982895,2.2630410305761752,-0.016021498289473975,0.1481011803389891,0.29492879077062717,-0.491166546245465,0.22917064642440885,-0.8443843407872798
25297,6.042,-0.08181109174835383,0.593149775613781,-0.03273956367105106,0.8002552154949654,5.387263478281841,-1.4501505405355055,1.288435299291874,0.07599246759686169,-0.08354451669384508,0.14678916956568533,-0.48746250637546795,0.2265644096743645,-0.849897052033334
25298,6.050,-0.08243373052123723,0.5937464615346836,-0.03275336901884728,0.7997481080348423,5.4793329938919255,-1.3538085191238123,1.5302419726422511,0.07560641727803334,-0.19224964154473673,0.11410142896591036,-0.49068547505041454,0.22187126346359284,-0.843432175057707
25299,6.058,-0.08318679057697832,0.5946450645494984,-0.03253521822092366,0.799011054151156,5.852299753580384,-1.129799805723056,0.41781864523809153,0.12237226920495907,-0.2912888026585909,0.10029837710979278,-0.4908987269867312,0.22736864062433457,-0.8475043512274802
25300,6.067,-0.0840750024687219,0.5953211987598691,-0.03200214850970435,0.7984359252674945,6.442827630123183,-0.8952034800706065,-0.9950772188880761,0.21611188951635107,-0.22932647287721178,0.08555998218479725,-0.5001367684584822,0.21964490163479883,-0.8527197385135635
25302,6.083,-0.0859970078948318,0.5958756929757955,-0.03050231833538576,0.7978761067546257,7.214533620449032,-1.095196078717516,-0.30656012414612765,0.2741057954154996,-0.11649595936172524,0.06625455313630207,-0.4886760422222255,0.22531538789197952,-0.8508463580382332
25303,6.092,-0.08724657817503575,0.5962912850349834,-0.02964417674500953,0.7974622002159015,8.257060785424647,-1.0103478282980058,0.0941930154735334,0.3287902585113701,-0.16894877248852574,0.10372533713020438,-0.497003754222717,0.22810795566313996,-0.8473282684241125
25304,6.100,-0.08864193899108296,0.5967562383664119,-0.028969877345876756,0.7969851597296129,9.344705200781073,-0.7770175226950188,-0.38011122801693953,0.321312441960212,-0.18358194106307796,0.16293886882008551,-0.4953043589794366,0.21861947910198093,-0.846057900379323
25305,6.108,-0.09017632032095982,0.5968687979823664,-0.0286266448673321,0.7967411025245881,9.791478782939624,-0.7485194431659947,-0.27019612000979915,0.2800670571275678,-0.08139593262646967,0.2336535982587927,-0.5031360240970519,0.21478706303996603,-0.843561499289118
25306,6.117,-0.09171710081455563,0.5966248770609668,-0.02858899455524271,0.7967492697709108,9.503543079734106,-0.7640970184736084,0.20403682972905993,0.23980974394093688,0.030666782623610767,0.28343195396943494,-0.49333898678411814,0.2156405803097045,-0.8476647195435472
25307,6.125,-0.0932776757898502,0.5962347505817146,-0.02871730733909853,0.7968555161741658,9.565568053354072,-0.7108716050741094,0.6648275272119417,0.2079837722474937,0.07307478175809919,0.3074248748491793,-0.49039886777847214,0.2212172991396474,-0.8490285191540554
25308,6.133,-0.09473127421249312,0.5958472759512629,-0.028904273067062447,0.79696709620034,9.902772409140518,-0.9699601499489797,0.8546611971058448,0.18836135619725639,0.07804008950993029,0.2994193881301037,-0.4957618175035747,0.2072640808295829,-0.8501223085287305
25309,6.142,-0.09608242797734937,0.5954618473898259,-0.02905774548389916,0.797087826255342,9.73008217676667,-1.2582661985272474,0.9033047471065877,0.1733039768815432,0.07747178183228857,0.2711899640512061,-0.492090392157044,0.20796011859427857,-0.8513362979651736
25310,6.150,-0.09719376579794238,0.5950553603155035,-0.02917071912442526,0.797252506547057,9.566836538548008,-1.432238311492645,0.6231921418496669,0.15381766939957744,0.0922203134041608,0.22292661614790568,-0.5025723403666248,0.21229502852085477,-0.8534979889751666
25311,6.158,-0.09808290866998674,0.5944914758863032,-0.02921734894315068,0.7975625208383944,9.474736492074365,-1.3590790089643225,0.18446237967280793,0.13274672377076788,0.14266325901872734,0.16670386593769793,-0.4906700707139131,0.21619356432739384,-0.8454625268839209
25312,6.167,-0.09869101461828796,0.5938048407795947,-0.02928626742604613,0.7979963716963779,9.270829469552762,-1.1710098379848057,0.26592534533515944,0.09805244794542438,0.1898666629826916,0.11923931461410296,-0.4774403059119057,0.20892904192830972,-0.8514980407714103
25313,6.175,-0.09911347192391398,0.5931923796287076,-0.02929363657711187,0.7983991503563282,9.175124326726563,-0.712795117372741,0.1091216671286633,0.07518064525462041,0.17053903743632826,0.071299525059864,-0.4825822513379332,0.20752254064088185,-0.8495414457219161
25314,6.183,-0.09937022060427839,0.5926555068846587,-0.02931477757534341,0.7987650801281023,9.38476627896247,-0.2621939306369042,-0.41376341442034953,0.052563547877458136,0.15502145586171504,0.044961501367298394,-0.48161992651309876,0.2102646182589142,-0.8476611598744859
25315,6.192,-0.09953164931664994,0.5920836145948031,-0.029343720952729073,0.7991679361394003,9.63312170016078,-0.019670239209121424,-0.8146358169052661,0.03312352510165426,0.16669138870121225,0.02451694239523358,-0.47840366133557055,0.20985468798823112,-0.8532424896603876
25316,6.200,-0.09965883567444854,0.5915267208826681,-0.029389205465088084,0.7995627114591715,9.919837716654328,-0.003919176223170859,-0.9969490922873423,0.029985358212856875,0.165093621446796,0.023492866651771905,-0.48205798594061877,0.21104600673846974,-0.8542824448644818
25317,6.208,-0.09986355068935533,0.59110827582247,-0.029263548314720413,0.7998511875579942,10.056168176854152,-0.6087329700628458,-1.404829661227821,0.0650985633854205,0.11761961647135859,0.011234473913142941,-0.4782149614900235,0.21055914246530463,-0.8459342518577603
25318,6.217,-0.1002237133363378,0.5908271096492166,-0.028883870219149746,0.8000276594154679,10.019339477795121,-1.5112708144757856,-1.7179316794878345,0.13641409023263168,0.06980246576960603,0.0075334395260233545,-0.4857147639357718,0.2095601637818407,-0.8549990336529484
25319,6.225,-0.10087402869678225,0.590711610641283,-0.02809425245868552,0.8000593330290261,9.70254670446494,-2.2879098043743427,-2.026142776861067,0.2474135778376612,0.004501293339205856,0.002269339704491234,-0.4801498442155324,0.2090228093555475,-0.8483460641160984
25320,6.233,-0.10178826353313102,0.5908253477913441,-0.026788495577442492,0.799904328228598,9.269568585259591,-2.8515841859273814,-2.124440707308924,0.3808378103049933,-0.07846917012024529,-0.018319876029288626,-0.48353520951753404,0.2052324667342828,-0.8526562920617057
25321,6.242,-0.1030138746942447,0.5911943429875683,-0.024863683070298553,0.7995368582524236,8.643432261992508,-2.9762447532651364,-2.519437229236149,0.5328336730272418,-0.17474159621618918,-0.04904298020001871,-0.4840437331086444,0.20579987651000875,-0.8499901245726458
25322,6.250,-0.10445086297370802,0.591822278392394,-0.022303584169210498,0.7989611743731294,7.995649634658685,-2.7310839082037575,-3.3515848351091715,0.6799426590387218,-0.26869177695163554,-0.0966752470302137,-0.4923349818040544,0.18939910478830232,-0.8512780412447992
25323,6.258,-0.10615835888367943,0.5925520400982331,-0.019074590019187022,0.798278549524003,7.63513502454071,-2.485016828391074,-3.9793475243451746,0.8406569941777746,-0.32080859923224625,-0.14259694746439178,-0.48156648104527244,0.18416619648451832,-0.854705481659725
25324,6.267,-0.1081229628815262,0.593317405124365,-0.015183108062253087,0.7975295323082275,7.29162784901667,-2.2580543972005946,-4.13527206610858,1.005130203838986,-0.35333688268036095,-0.18611443773178746,-0.4950021650130466,0.18004646909513128,-0.8537086317927529
25325,6.275,-0.11047960509689218,0.5940647380191965,-0.010676990994590883,0.7967228789002611,7.093509407228024,-1.9844637509999916,-4.276672399111618,1.1770857841573161,-0.37514595266236356,-0.20093734075329606,-0.49334687599212323,0.1721953059499855,-0.8466248910589446
25326,6.283,-0.11323107217230151,0.5948485171005621,-0.005666304273524137,0.7958026507833795,6.783735497267956,-1.7817079280813541,-4.321115952009964,1.3303349489034346,-0.41279390844155067,-0.194789606613913,-0.49401198654324063,0.15825530956459802,-0.855499565340542
25327,6.292,-0.1162694703529313,0.5958698760211012,-0.00023347803586889335,0.7946196867700004,6.388634146665761,-1.6665158353749256,-4.556577909621654,1.4443308918589282,-0.5071424579489731,-0.19880710012501948,-0.4950360199698411,0.14476251167834467,-0.8492464160168348
25328,6.300,-0.11952902829154718,0.5972229676323244,0.005734613252601374,0.7930981355033949,5.890060191127056,-1.6115170093627091,-5.110487387655165,1.5693615901647422,-0.6333309648562189,-0.22672247220131275,-0.5138142148340146,0.14346299974283164,-0.8520372731222924
25329,6.308,-0.12285480653438689,0.5989832145691396,0.012217394884409791,0.7911867923809504,5.418966191112191,-1.7463076477701693,-5.977972979893624,1.6654758957371878,-0.7790049248295555,-0.28269001050752046,-0.5087411740118435,0.12681939780122245,-0.8449119717680557
25331,6.325,-0.129380380583569,0.6025638940963605,0.026424902639120028,0.7870700065254642,4.703021904968807,-2.2442513829752913,-6.421535019992834,1.7730317214529951,-0.8223038767228399,-0.3801667199175368,-0.5222408740697739,0.0933951492166565,-0.8354775507311819
25332,6.333,-0.13372585314031601,0.6018037783623624,0.032793616982431405,0.7866855707561244,8.175977860399177,-4.688235613120803,3.033289262921389,1.8638523522626746,-0.07368620628970879,-0.11780518391248568,-0.5248477258787876,0.08038801177020873,-0.8458600558658155
25333,6.342,-0.14034436717294646,0.5985346817375523,0.03654460947465909,0.7878605110541441,12.44831658822048,-4.118380449282963,18.369635144617295,1.7690277917455266,0.7024843815726198,0.6455228849160918,-0.5164850554102077,0.07648226308465134,-0.8539858083623153
25334,6.350,-0.14935706682925948,0.595631408315793,0.0380192501726645,0.7883338307038549,16.6120271379176,2.6861121048136574,19.36230322530957,1.6827671793036463,0.6073807594447858,1.4482398546337778,-0.5111510538616905,0.060505847391664584,-0.8490765360429774
25335,6.358,-0.15867220796697598,0.5930455356507818,0.03603928816111458,0.788556461372553,22.098375030582766,15.431716899289567,17.919085136548173,1.0672934085577588,0.6203029695014319,2.0185712025549676,-0.5025879091017115,0.06849405523815799,-0.8514459687721199
25336,6.367,-0.16495830693200955,0.5916204782806361,0.029963379471079243,0.7885912518813462,25.29923850116007,30.467335571461792,16.111865319694825,-0.1824155129751632,0.5025498770047582,2.0501408507756924,-0.5055261675341527,0.07121449421913544,-0.8503273999902244
25337,6.375,-0.16514105723450456,0.5933597770270097,0.01889518104289271,0.7875884574797198,24.721053766926662,18.541639545539354,13.133775324197687,-2.113527359906071,-0.07871573274657634,1.6663591242945222,-0.49326173723096534,0.09736821135895851,-0.8578465129173536
25338,6.383,-0.16033338849254203,0.5956555188154442,0.0047362051495467615,0.7870611639510524,17.27608638625257,1.594094083942136,10.505250785398044,-3.436901660164543,-0.0021227734980236597,1.1606697486992124,-0.5082175196979384,0.11935411862298569,-0.8495724277261805
25339,6.392,-0.15245889030144047,0.5980310908156237,-0.008502119225989972,0.7867927396427831,12.391544795624627,-7.5558959723860655,6.5885884468858755,-3.7099829932796577,0.00297011218628158,0.4400322642966332,-0.49749587035504694,0.1448346404685276,-0.8468246682027328
25340,6.400,-0.14399033723097077,0.5989819610425395,-0.01938539592395001,0.787471650000568,10.462717488410426,-14.762583819637866,5.6194017334338096,-3.3011276206418234,0.33600123453497377,-0.034004746670856664,-0.5041366820102146,0.16505460632757188,-0.8403893341021004
25341,6.408,-0.1367159454829475,0.59891902262491,-0.026607380075179186,0.7886043380011687,8.200918045398279,-17.292185543184765,5.747151381988099,-2.4016565735689013,0.47131323654260526,-0.35000204466634544,-0.4974923498330928,0.1770615612571962,-0.8472886867716652
25342,6.417,-0.13152873107946905,0.5984841191739648,-0.03024817889606817,0.7896847470165929,8.977994395361412,-16.41296506074118,5.1947409721472,-1.415567310443748,0.4058186469497234,-0.4756911153175891,-0.49413332420581524,0.19560935313849537,-0.8395067866334468
25343,6.425,-0.12819640366580728,0.5979462759854957,-0.031010609989973178,0.7906100651966691,11.262649973885736,-14.060947192577181,3.7605860866083036,-0.5992217605496478,0.30182236305693455,-0.5406570142829152,-0.49586137574546446,0.1929971073427923,-0.837000142688148
25344,6.433,-0.12612850501065084,0.5972268574127303,-0.029547529963687477,0.7915419284420365,10.926314981940624,-9.858271253406329,2.249839322753894,0.005418994815536673,0.2606837581137336,-0.6271706812105751,-0.49755599192052735,0.19074309783128468,-0.8389004106239071
25345,6.442,-0.12455971239677269,0.596512107915603,-0.026347606570766013,0.7924417876321954,9.990106292334369,-6.014174122239917,1.3813972674046853,0.40948657930513577,0.20485339876395128,-0.7827924305265003,-0.49602334372384344,0.18754781266845952,-0.8478317451821079
25346,6.450,-0.12323381306734288,0.5958549336253033,-0.021867447993541102,0.7932793581768777,9.420898220437087,-2.182462284346777,0.8114128583095026,0.6801791919566684,0.14825237810039668,-0.9252253132727764,-0.48869172024922075,0.18019072667549713,-0.8487799327340225
25350,6.483,-0.11658359603464703,0.5949771856061479,-0.004930595971882133,0.7952270763544084,10.46082894378556,1.9259195299883132,0.6173310542710708,0.5747119265353673,0.02547629195392746,-0.9459110402181466,-0.49042993195224643,0.14879688835287175,-0.8449341395002087
25351,6.492,-0.1143870785259054,0.5953032343695934,-0.002623531662160331,0.7953130028466948,12.488895503683775,1.856879242338699,1.3594828436247302,0.10950001070452921,-0.08900247987939977,-0.7660741903798376,-0.4970198518419205,0.1480575733140664,-0.8452065392250414
25353,6.508,-0.10941359774260893,0.5962536387314015,0.0007514268240846935,0.795304783266334,10.96168122977495,0.996598061068943,1.2451380131732677,-0.04730714542799277,-0.11204602437387748,-0.7257495364943668,-0.5033991920763478,0.13816758319460212,-0.841054545678754
25354,6.517,-0.10684295624927272,0.5966378261088104,0.002104451324260335,0.7953637271341287,9.315627588545558,0.2534324900965015,1.2112567709197084,-0.12316108839244619,-0.07884059330933899,-0.6953715983431714,-0.5018845749077486,0.1289363626113825,-0.8476093201821108
25355,6.525,-0.10415975409837473,0.5969858998827573,0.003289061616862288,0.7954544380673363,8.92931964216492,-0.12388636711064037,0.43943923038610494,-0.167883243613435,-0.0621724333532017,-0.691371257439589,-0.4960566697197343,0.1380954544044192,-0.8434392485230618
25356,6.533,-0.10159348357059413,0.5972805158888665,0.004466622743394934,0.7955594250065731,8.584782307454777,-1.2315771883183004,-0.008737736779346642,-0.15228124038810917,-0.05089205393067485,-0.6688410731091528,-0.49846577424116084,0.13308494151684266,-0.8477060041175614
25357,6.542,-0.09933888170219402,0.597495224740261,0.005875812008661608,0.7956737508727942,8.593234161676651,-2.6515828064223896,-0.062353097075824274,-0.05994114162163466,-0.03980244450060147,-0.6425805799287163,-0.5053013508329075,0.13381704367662978,-0.8477795050895625
25358,6.550,-0.09750718075221491,0.5977106161753931,0.00763975337869208,0.7957235720910245,8.920091660706507,-3.4569928254888995,0.43755934341832026,0.0677923646253092,-0.0582875635514325,-0.6132652725903379,-0.5062770096633278,0.1377215885288276,-0.8479023168263979
25376,6.700,-0.05899546087241007,0.5932136404106855,0.009984677721948295,0.80281842195975,8.053499118410109,-0.22806380004545593,2.921125611408747,-0.27593419769214605,0.1129217692191175,-0.43837182153272364,-0.49995338592888544,0.13879149216911485,-0.8447106576626859
25382,6.750,-0.052809909921644076,0.5937810641859227,0.010178354474160012,0.8028272306844727,10.067614138672107,0.5536444590134282,1.6519054699333846,-0.14100083817499814,-0.013416803774104117,-0.20957641093603502,-0.49631147417607535,0.14009100410462788,-0.8420346399635904
25383,6.758,-0.051812489275570126,0.5937461774172849,0.010064529397788732,0.8029194529997595,9.017502639998197,1.0024757104664535,2.121324046676695,-0.16123106918139013,0.02582132888099983,-0.180657136637504,-0.4892283255863098,0.14642867661043105,-0.8424124812444633
25387,6.792,-0.04702093419692648,0.5933502859442785,0.008879184559526956,0.8035207713548228,9.507884107437006,0.6342851530487905,2.0647252448155644,-0.2240146374231122,0.04965690378641865,-0.19415725651441276,-0.49043750188027113,0.14809363770915784,-0.8439363933663198
25392,6.833,-0.03989971283677904,0.5919013414735881,0.004389407055226194,0.805010278184703,9.306604132430643,-0.08141363606625393,1.4912363446116954,-0.3698720679023296,0.11245905307016682,-0.15074383231787822,-0.4863017686104697,0.14937151100761598,-0.8419887522599444
25393,6.842,-0.03863892868044757,0.5916425642258353,0.0030180316897841612,0.8052682788185718,8.723668028958274,-0.5431432599574627,1.2006695007069308,-0.4350244268751242,0.1031051654393252,-0.04843911697353004,-0.49385035603456434,0.153936029229418,-0.8446234830192904
25394,6.850,-0.03742572190626556,0.591417657011288,0.0014564561616113808,0.8054950956092303,8.699477993123773,-0.5591729777700363,1.1221320518932238,-0.46788318983684196,0.09237984065980615,-0.015247165532388187,-0.4806985067454347,0.15454671627925368,-0.8403894274354073
25395,6.858,-0.036218921583807066,0.5912692950915698,-0.0002392891267866647,0.8056604453129981,8.692041837307354,-0.4817121806507974,1.0529223084969312,-0.4920710411416386,0.06978549004901805,0.006510450012175336,-0.49219145531271374,0.16219111359958813,-0.8380157785998481
25399,6.892,-0.030684114210316412,0.5912345714226724,-0.008452086379640468,0.8058714096713001,8.38112186587577,-0.011469421701485091,0.22534275041202584,-0.5887329671683672,0.02906144117034831,0.022168154702131848,-0.48237327690869436,0.1746861366357372,-0.8449054773819064
25403,6.925,-0.024816280715050747,0.5916266344391677,-0.018002964302689932,0.8056289287941263,8.552931016660644,0.5029879937143944,-0.4837387753547311,-0.6645724377820437,-0.0054410726375289705,0.05488390627417914,-0.4863578680928566,0.188425376241972,-0.8345946209707842
25408,6.967,-0.0159594346565941,0.5947474395861362,-0.03414570695606116,0.803028548837243,8.315801254106931,0.5567246146244097,-1.1168498352816045,-0.8750915340313831,-0.16784396778922123,0.1125780134767093,-0.4969035495688453,0.2225624960159893,-0.8283560180875853
25410,6.983,-0.010415430642974833,0.5969250009884388,-0.0422715234824845,0.8011149607278245,8.28439721583549,1.6756097220402415,-1.405396069395455,-1.1793713753559771,-0.30386414370288317,0.03839063028033044,-0.4986907103416542,0.24558224252521232,-0.818058545924488
25420,7.067,0.035036337877236506,0.617114498397563,-0.1106586520932396,0.7782652591582024,8.333304005273499,2.1850842276213287,-2.6604511048209365,-1.9910530501756134,-0.6529880206654619,0.08093906616554962,-0.5329705248348335,0.3773293923463745,-0.740631844087288
25440,7.233,0.06414094411040629,0.6110408364067192,-0.12791720420504915,0.778557784882,11.398936556622541,-3.3109740852454594,4.098173439756874,-0.3725213435315622,0.09790014189776897,-0.13466050479509173,-0.5313035525470315,0.39678840452955855,-0.7350880036433157
25467,7.458,0.09709166444612133,0.5897159767197986,-0.19004123189730115,0.7789047474983396,9.738370215028464,-1.4728135110992897,1.4384830351387914,-0.6133175959628063,0.15092733296543648,0.13840601790068274,-0.48476281405602345,0.5153240486250418,-0.6908532104190092
25469,7.475,0.0974846068972883,0.5900909864576751,-0.1910074228620477,0.7783351100464941,8.531873120667148,-2.607508400607783,0.6646356459311912,-0.06853061025983254,-0.06022908043083921,0.046434122728923805,-0.49108943840798397,0.5091366427452632,-0.6936493764527959
25504,7.767,0.08368617535421541,0.6305422946526908,-0.141324797990062,0.7585778405554509,8.622431611443847,-1.1676017161538796,-1.9027890803063483,0.3255129401080578,-0.27210896957243336,-0.21071696737695417,-0.5711012702022507,0.41436367169788707,-0.702690853489487
25505,7.775,0.0825749259432324,0.6305304969470703,-0.13872603701954003,0.7591888833999111,11.641202026805223,-2.0420443554180134,3.460326837007725,0.9320159748874133,0.3079718620856506,-0.0849186886843177,-0.5603816638672976,0.41420619219284416,-0.6996738175257112
25519,7.892,0.08545956615466803,0.6135659105479241,-0.18673745558761254,0.7624714149703041,13.282655828159138,-2.3848651754386756,6.938992085677818,-0.6641526965914512,0.18228302527835427,0.5307886878163054,-0.5134694164238769,0.4892580898667978,-0.6722257420938652
25520,7.900,0.0862673743073477,0.6140162422727437,-0.1850670420368514,0.7624251991553702,14.489423094748167,-2.342300674505372,1.6362783387234567,0.26876041608244317,0.0349429653317757,-0.3871925142393738,-0.5190501326730615,0.48546053436651476,-0.6767966673057798
25548,8.133,0.16764803677325707,0.5987660338492776,-0.1959917470866123,0.7582615693468949,9.05859892377305,0.4738807179811526,1.0088800207243471,-0.517245682946331,0.21502645812413435,-0.4502018125047094,-0.5342568901321424,0.5120879039759652,-0.6354430961196665
25552,8.167,0.176576220456248,0.5987355379393039,-0.20134334047550237,0.7548492917292067,10.078563145414686,-0.45648078025043487,0.34502726937615863,-0.5471186458582155,-0.03863076044084372,-0.2102391637392106,-0.5415980352869679,0.5265652547876457,-0.6332399138598164
25555,8.192,0.18033936371224502,0.5983075864548738,-0.2052102639887841,0.7532559282475381,10.319857761699025,-0.3396793543296973,0.44372195052227154,-0.431651926435934,-0.03607878123092374,-0.054572477195763205,-0.5465358673976923,0.528489879531031,-0.6260066366326219
25556,8.200,0.18133545747545515,0.5982265762816358,-0.20663316041090446,0.7526919371901903,9.911820194060736,-0.04190655748551253,0.34688325758289595,-0.4044581651768414,-0.06702023752190901,0.015385060150839252,-0.5443733498649408,0.5308232307117399,-0.6214183668709844
25559,8.225,0.18397786181164155,0.5984643082045485,-0.21165325348410471,0.7504635357284601,10.043463122961512,-0.09243353730217908,0.08956017709078883,-0.45741501982952537,-0.148633017748194,0.037458196728663816,-0.540471015479943,0.5386539590531906,-0.6208874552912027
25560,8.233,0.18513575855224088,0.5986976285451588,-0.2137908862254729,0.749385986956399,9.169741692995604,0.2979692043266486,-0.3371439103168245,-0.559506486625211,-0.21800667682109098,0.05386268398323848,-0.5437020283210771,0.5476699970992208,-0.6133623257362444
25561,8.242,0.18632620748492226,0.5989357799207495,-0.21615935545549173,0.7482202944214196,8.676973987123953,0.6107116351055052,-0.46729851707435727,-0.6413984765297608,-0.2535143538680958,0.05308018921343442,-0.54226652143241,0.5492496074830877,-0.6094900557954864
25562,8.250,0.18777133976572805,0.5992235797064109,-0.2188469236465709,0.7468460681404507,8.207105084212278,0.844903594359736,-0.4237572611936416,-0.7278081029027622,-0.28669643856246535,0.05298778241548378,-0.5506540814614624,0.5495886127969474,-0.5980837618388409
