packet_counter,timestamp_s,q_w,q_x,q_y,q_z,acc_x,acc_y,acc_z,gyr_x,gyr_y,gyr_z,mag_x,mag_y,mag_z
17426,0.000,0.999999794620459,-0.0004556350504901272,-0.00040819326809371465,0.00019113868419061298,0.09607238183189096,0.047760771527496027,9.714182371919044,0.004982401053362156,0.0034494284011047497,-0.007172905881607382,0.49490538861578565,-0.7358363600917005,-0.9701698098672292
17427,0.008,0.9999998024297254,-0.0004358879012516841,-0.00041429288166060403,0.00018304003982277692,0.09589373912117158,0.0483445555524067,9.714181250693994,0.009260134801749283,0.0008738026165746776,-0.011104505342558607,0.49053054181055,-0.7380186661182466,-0.9724206126569158
17428,0.017,0.9999997929396214,-0.00045489547595535214,-0.00042034241695888786,0.0001746512910501594,0.05818334052513356,0.05972179321202653,9.746392698144753,-0.00010795709762690662,0.0009029008177439511,-0.01116114563665192,0.4934879215122575,-0.7348233758082857,-0.9755468666320013
17429,0.025,0.9999997851323813,-0.0004578406688153372,-0.0004325382209094082,0.00018173552433801976,0.09635989027389846,0.04417603976077911,9.743090084541333,0.0038877622544290624,-0.0004838587771545674,-0.0075058359755198175,0.4880375015052039,-0.7373260184826267,-0.9665781670251677
17430,0.033,0.9999997833500326,-0.0004618303565106356,-0.0004356512012750377,0.00017384084910123925,0.09631083674412709,0.04448331221068355,9.743089171510913,0.0034974086959268995,0.0016075943139791092,-0.011080334109507692,0.48895614318352343,-0.741765175621209,-0.9600079808306431
17431,0.042,0.9999997812876655,-0.00045680340470016665,-0.0004456042256736873,0.00017375887178563016,0.12335197046730347,0.05589538187432017,9.744355212559054,0.005672484003922626,1.9162373547876734e-05,-0.00932569023541352,0.5011628017830303,-0.7434741206551544,-0.9599118962922938
17432,0.050,0.9999997777887102,-0.0004607901208238238,-0.0004493933547937811,0.00017361050618639408,0.06906747809837907,0.03421041761679746,9.741820144910497,0.003515286728905,0.001457092845454878,-0.009220320232411414,0.4966016043889663,-0.7395083245091727,-0.9687148290261173
17433,0.058,0.9999997802002875,-0.00046620326599730507,-0.0004440855314494183,0.00015824642968681357,0.12307929272663644,0.056558843860114554,9.744354831925023,0.003124670777168774,0.0035483126118276568,-0.012795053708667754,0.4987647076525123,-0.745882339554541,-0.9648325073457145
17434,0.067,0.999999773495192,-0.00047018324473386777,-0.00044922484088037176,0.00017359240794404194,0.0792005711994502,0.012738721394397391,9.70834531629194,0.003551298982993298,0.0011565060681044059,-0.00549987832087391,0.485365345736516,-0.7434194542591281,-0.9681080219855723
17435,0.075,0.9999997781998677,-0.00046802513274618016,-0.0004435034081973473,0.00016690541602871456,0.11158229559506286,0.08391916193514957,9.748919309501362,0.004945234044979348,0.0037506997015080436,-0.010894501049636206,0.49387133199003863,-0.7461347573466669,-0.9636566083030902
17436,0.083,0.9999997662956402,-0.00047803171556167455,-0.00045689407769628675,0.00017361493593784176,0.09545152725938044,0.04644509710047698,9.743088473349104,0.0020853946119597146,-0.0008365336532772085,-0.00754660612173569,0.5000193232540069,-0.7375552444703779,-0.9686714266850639
17437,0.092,0.9999997653544016,-0.0004834899753676855,-0.0004530765015070468,0.00017392604707569306,0.10645294989683807,0.01993952517222124,9.738526876537605,0.003160384625455585,0.0032475789383240306,-0.009074901100388583,0.49197385151661405,-0.7390117717121973,-0.96997306196745
17438,0.100,0.9999997668386863,-0.0004814507442605081,-0.0004486129628098665,0.00018241207058270089,0.09394962888928114,0.056401048728818515,9.68526551736311,0.004980962452544444,0.003450368126779443,-0.0071741130625557654,0.49757828963385997,-0.7421938095625156,-0.9687244360500067
17439,0.108,0.9999997697897699,-0.0004885557708259203,-0.0004368502354007682,0.0001757712669251408,0.08361449532258752,0.0740479535196507,9.747650429574307,0.0027874350286562436,0.0051881170635261434,-0.010789742366859614,0.49825246409311136,-0.7410178615895628,-0.9621183041161874
17440,0.117,0.9999997728840172,-0.00048651991858665074,-0.0004317115735019322,0.00017650892369015672,0.0937989121733112,0.05234429203601157,9.714180973635438,0.004962935220374848,0.003600676068341345,-0.009034604514033064,0.49531590386959695,-0.7322339710873526,-0.9613521370466824
17441,0.125,0.9999997718353049,-0.0004920561665756278,-0.00042779458674417533,0.00017664047951699863,0.12174211733827134,0.05433931199281503,9.77327643237906,0.003160334779163891,0.0032474642929741686,-0.009075264765029272,0.4989718777195337,-0.7400512609148975,-0.9606404643071577
17442,0.133,0.9999997717828905,-0.0004870495458490765,-0.0004368928919675696,0.00016834936177156584,0.09337497778718763,0.05304485614116282,9.714181257476058,0.005655221862838173,0.00017003588441534884,-0.011186436987456664,0.49166301878478774,-0.7400396650127101,-0.9624139508447109
17443,0.142,0.9999997733912884,-0.0004849235418137065,-0.000432249748122818,0.00017671074185423636,0.12088576756044646,0.059845279915658134,9.744362661915783,0.004980578770048945,0.003450718016245725,-0.007174510348786979,0.5030119634594141,-0.7477608745078455,-0.9757947958757538
17444,0.150,0.9999997706286202,-0.00048139490494560815,-0.00043591410987479023,0.00019230325506518927,0.07703793191936016,0.016126510574578763,9.708357682323285,0.005353766553021632,0.0015103184159288956,-0.005459649146577879,0.4959575650199404,-0.7404169456729013,-0.9787370615547901
17445,0.158,0.9999997712112408,-0.00047813386009842163,-0.0004382471258562881,0.00019210656998723994,0.11998219800386699,0.06540357742856077,9.715448221526362,0.0053179070604267575,0.0018102683103131867,-0.009180652068553345,0.4981010233023893,-0.7424114396480794,-0.9726277934438434
17446,0.167,0.9999997651740175,-0.00048063143862265705,-0.00044949303206114104,0.00019131477799676146,0.11991735166633856,0.06578481302928299,9.715446447733374,0.00387079206209951,-0.00033363580748642667,-0.009366759488794648,0.4975932475834748,-0.7402291336215335,-0.9704200626499067
17447,0.175,0.9999997700404621,-0.00047878969222955864,-0.0004436331909173396,0.00018403544708356205,0.09267609482430952,0.05508702197480188,9.714176584326973,0.004944339875842193,0.003750595575915091,-0.010895967851754233,0.4866420228985142,-0.7438646537749881,-0.9744478301358054
17448,0.183,0.9999997663882184,-0.00047377610154297257,-0.0004540783707716695,0.00019123950270317794,0.10421117547719977,0.024118447106446627,9.738541671023734,0.005691237704997118,-0.00012982068505759493,-0.007465779485904456,0.49246618706572276,-0.7351022985196972,-0.970430501892369
17449,0.192,0.9999997683402279,-0.0004705552532827717,-0.00045610916477916206,0.00018401541853581627,0.06535128968739917,0.04490755114113552,9.712904916963275,0.005299739447964298,0.001960159401455332,-0.01104161340282329,0.4934405872458076,-0.7355922250868513,-0.9701810749729507
17450,0.200,0.9999997645166376,-0.00046554182881691444,-0.00046655413059781234,0.00019121903264159132,0.09236850587504501,0.05642857917444333,9.714171813432445,0.0056912357987272625,-0.00012971843233169965,-0.007465895657890351,0.49909676901905764,-0.7397110455776386,-0.9747980871781338
17451,0.208,0.9999997639456851,-0.0004609103619979494,-0.00047569814712730864,0.00018270600753367158,0.09292368413166759,0.05221104095096292,9.743083718828137,0.005655331584328102,0.00016975177328560538,-0.011187137547839471,0.5015206911393784,-0.7370388129839386,-0.9728053257070155
17452,0.217,0.9999997561355766,-0.0004724056273808701,-0.0004809651241881547,0.0001823026610642309,0.10400144143849126,0.0258028124642254,9.738539595140042,0.0017126434473209544,0.0011024220128192318,-0.009262472888281241,0.49489503002125484,-0.7426804230147588,-0.9689955641399516
17453,0.225,0.9999997538466675,-0.0004676178447015375,-0.0004906424018132363,0.00018141165731135102,0.0922562453374653,0.057507206359562246,9.71416655471379,0.005673237080142537,2.0220968753904064e-05,-0.00932671421317757,0.49811589357560565,-0.7389819536780013,-0.974313481085722
17454,0.233,0.9999997630136344,-0.00045808450324559086,-0.0004833549007674625,0.00017464049688398702,0.1043458670619979,0.021942661266934192,9.767454819291753,0.006745629808245088,0.004104534283131249,-0.010856636415844188,0.4934748833091251,-0.7328802351142231,-0.9740688616503196
17455,0.242,0.9999997619156774,-0.00046406599901256077,-0.00047980472923160063,0.00017492500934514497,0.11943331883646206,0.0648293064483272,9.74434868771096,0.0031588723666937566,0.00324656244217587,-0.009077139367030628,0.49319711369258795,-0.7465783003050716,-0.9702577707578988
17456,0.250,0.9999997565494834,-0.00046805129919703193,-0.00048426896573704523,0.00018251718883612668,0.103297152680821,0.027312344895154224,9.738542974734582,0.0035328971853747547,0.0013067524986221284,-0.007361617329053567,0.49687566602713634,-0.7358231076320578,-0.9721055851191336
17457,0.258,0.9999997555413825,-0.0004736940436897216,-0.0004806795711063752,0.00018297070375874412,0.09196603882785923,0.05430276566458416,9.743081371249733,0.0031587587349769485,0.0032465305833082564,-0.009077323029936978,0.4941704179176929,-0.7287581015085249,-0.9698841068632128
17458,0.267,0.9999997570516428,-0.0004716638897970567,-0.0004762115897993287,0.00019144804057236384,0.10283684938610592,0.02792812349312223,9.738546100498276,0.0049789177842743055,0.003451423094802399,-0.007176165557404352,0.49543679493609255,-0.7370239039668406,-0.9750562952581824
17459,0.275,0.9999997700254101,-0.00045519614601290137,-0.0004675626065490197,0.00018474524290230232,0.1019542158976272,0.033159636851597146,9.709631833769224,0.008547605517100857,0.004459247655994137,-0.010816595302959692,0.5020323209639905,-0.7316496207452443,-0.9754499562303928
17460,0.283,0.9999997691326645,-0.00046067619692034644,-0.00046390089325126354,0.0001852242436876734,0.11813376769387003,0.06677067089016446,9.744351419912823,0.0031586998984446586,0.003246264606204126,-0.00907767870718633,0.4900294605459986,-0.7397375504969241,-0.9709717622698627
17461,0.292,0.9999997705748932,-0.0004681142231744823,-0.0004528597335765319,0.00018611098117706922,0.06306386906936547,0.0495050481814554,9.712897693499926,0.002802197158150808,0.005036475202420785,-0.008932907350830157,0.49346642984834355,-0.7355723463973872,-0.9731105810482569
17462,0.300,0.9999997737005457,-0.0004660874831631599,-0.0004477198587153989,0.00018683747984982155,0.08979483964049813,0.06092061408288124,9.714168812354945,0.004960904830941265,0.0036009486789391728,-0.0090372261753049,0.48592004656535465,-0.7379971308713271,-0.9756351626344597
17463,0.308,0.999999773799941,-0.0004630146053976921,-0.0004504588898660581,0.0001873614987374734,0.08901380511858671,0.06601391631271612,9.685251388349137,0.005317473074341734,0.0018107658004263337,-0.009182105108503629,0.4854767750636484,-0.7340561830871756,-0.9807396015777634
17464,0.317,0.99999977280009,-0.00046849541113282535,-0.00044679789537722204,0.000187838918989549,0.09996419572763703,0.03965555345412104,9.680723357865737,0.0031585824760857017,0.0032461384494465993,-0.009078069632102389,0.49191974973213576,-0.7346587555612927,-0.9638401074364981
17465,0.325,0.9999997572520314,-0.00046847067745115774,-0.0004747063210519131,0.0002017052596251451,0.07403390287964819,0.01953610264508103,9.737285665479263,0.004621149345693802,-0.004213005994907548,-0.005935345156600422,0.4941946184156748,-0.7372846045462432,-0.9726274646873683
17466,0.333,0.9999997572419573,-0.0004724637078204538,-0.00047715933021892605,0.00018604581490354007,0.051247519129891554,0.07794981821106724,9.71741885155188,0.0034793810115606554,0.0017543078000736092,-0.012944691853996083,0.491768367392346,-0.7370288736392067,-0.9743562227361682
17467,0.342,0.9999997579926005,-0.00046181415421678117,-0.0004795401579231462,0.00020194965766423998,0.0633763943082782,0.04234687679713848,9.770726596585698,0.007154963154770221,0.0018676197419738728,-0.005420235241042591,0.49427005112400346,-0.7382031650547037,-0.9811784833790255
17468,0.350,0.9999997533970562,-0.00046431023719241274,-0.0004901193992308406,0.00019340321877343424,0.1280725510226601,0.04297725002616842,9.739822548165716,0.003854115366906332,-0.0001852558855188639,-0.011228674440500385,0.4922843043173808,-0.7316363682856016,-0.9774891042720963
17469,0.358,0.9999997492269815,-0.00046896433823093235,-0.000494245681532761,0.00019323465006742746,0.08976945785095682,0.0588798704383686,9.743075271769378,0.003514916763611208,0.0014557734820965552,-0.009223315077176738,0.4912222369261534,-0.7417121657826381,-0.9678006146333721
17470,0.367,0.999999745496563,-0.00047295359830657765,-0.0004980406671237425,0.00019307303614103853,0.10081833440216087,0.03246900292994915,9.73855312478339,0.0035148827467153484,0.0014557761137202303,-0.009223397599459181,0.4900921911440553,-0.7443280754228566,-0.9780828753189204
17471,0.375,0.9999997336700321,-0.000474029348207436,-0.0005176991484269506,0.00019985903524218416,0.11731134285120128,0.06594690748587394,9.773259189394837,0.004247000300844133,-0.002273461099601861,-0.007651600064990985,0.4922202238694313,-0.7404749251838381,-0.9702249728319594
17472,0.383,0.9999997204910209,-0.00048402746780387186,-0.0005310997442861561,0.00020656319157554543,0.1274898767630719,0.048832641660909296,9.710899215889876,0.002087724202913997,-0.0008387129784380061,-0.007547699745734134,0.49318202422837565,-0.7463457612024096,-0.9685472357209666
17473,0.392,0.9999997227977308,-0.00048046119358605713,-0.0005328247754391887,0.00019914633554236265,0.11098296706808147,0.015981225690332463,9.676192873617468,0.005298716384896101,0.001960155541208046,-0.011044132676580345,0.4934127226076579,-0.7378109753774148,-0.9670223518284011
17474,0.400,0.9999997188755255,-0.00048445169779024215,-0.0005366201329149489,0.00019898305350605643,0.10022413363625807,0.038387248350729805,9.709630583578752,0.003514549216000642,0.0014557233824404768,-0.00922380088783796,0.49686114645951357,-0.7451118337185203,-0.9704596533093405
17475,0.408,0.9999997304666001,-0.0004854477651200862,-0.0005158443423622967,0.0001931626505186865,0.0892426981794119,0.06075022451626334,9.743068630008842,0.004226379623398163,0.007330370874807463,-0.01061112445980101,0.4971287620597827,-0.7416757215186208,-0.9731196893765337
17476,0.417,0.9999997322155673,-0.00047292871245703874,-0.0005241295095955313,0.00019286130708015515,0.06129394140910985,0.054763244671150894,9.712880801187824,0.00747614236616086,0.0003769521472183194,-0.009287154934859569,0.49368470375928203,-0.7353480900820019,-0.9701772648801597
17477,0.425,0.9999997356238494,-0.00047115468830731983,-0.0005189951759989003,0.0001934153518573672,0.0893169852629107,0.05708917726072869,9.771986086993508,0.004959005000830051,0.0036013140929860212,-0.009039187390625661,0.49008738721070844,-0.7360307983728899,-0.977538303544248
17478,0.433,0.9999997451121119,-0.00046163287002241394,-0.0005117026298032725,0.00018663124875973946,0.12669968636878845,0.04665961456441313,9.739823560447752,0.006743056221472233,0.004105887146720727,-0.010859789077540483,0.49928454252144383,-0.7336507409502439,-0.9684072580900939
17479,0.442,0.9999997512628995,-0.0004615529339898537,-0.0004991848105911902,0.00018776994715457356,0.09868381600014546,0.04064983527609209,9.709637152977555,0.004601184146374872,0.005391302050945292,-0.008895221463399978,0.4960809804324491,-0.7385566328516054,-0.9650506276595454
17480,0.450,0.9999997457223687,-0.0004655404068982618,-0.0005036501560410832,0.00019535569506584126,0.08721704391787632,0.06768186237314773,9.714147543094517,0.0035326226260281395,0.0013066730427948553,-0.007363140650239265,0.49320306289756466,-0.7380286054629785,-0.9709321700216004
17481,0.458,0.9999997619962261,-0.00045013598878189306,-0.00048737512990742294,0.000189342457309232,0.08746207176163086,0.06351300047800848,9.743067159889119,0.008186970367078003,0.006251962275143613,-0.010675397782209432,0.4990191243095852,-0.7378176016072361,-0.9659963170081868
17482,0.467,0.9999997588403523,-0.0004631313746853819,-0.00048453417822192995,0.00018181088487413788,0.07532605972020467,0.09525092612394127,9.718653487154869,0.001337360016326514,0.0030377266378841363,-0.01098205412494023,0.49563586224792594,-0.7397441767267454,-0.9699457274496484
17483,0.475,0.999999763916123,-0.0004612186746277139,-0.00047855474386875816,0.00017444308434297042,0.08624282225397717,0.06881809063012446,9.714148258907937,0.00494101707421373,0.0037500259693220386,-0.010900909958755315,0.4887607838500569,-0.7290320545475705,-0.9655388834385819
17484,0.483,0.9999997671666037,-0.00045920159649586806,-0.00047341323034045965,0.00017515863132002565,0.09825116023487876,0.03323970850645139,9.767486114886909,0.00495870425035318,0.0036014655993573813,-0.009039874596251957,0.5024930985093156,-0.7402158811618907,-0.972329994704361
17485,0.492,0.9999997716533643,-0.00044848859752023585,-0.00047418435284051944,0.00017521528831554765,0.10921863448740533,0.007046100800081757,9.762984985659244,0.007118649668725547,0.0021678274405565632,-0.009143272835167684,0.5018905373556365,-0.7376181936536808,-0.9593774286482946
17486,0.500,0.9999997718026091,-0.000455475467012763,-0.00046374214896940203,0.00018406533660596415,0.08076092310676175,0.0055971235076288685,9.703873512456834,0.0028162437557853904,0.004886484464686014,-0.00707569813870999,0.4950870667858648,-0.7358844002579054,-0.963088016585452
17487,0.508,0.9999997658175696,-0.00045793599334032923,-0.0004746147501269325,0.00018275741193722467,0.07946976252009436,0.01515902289179933,9.646032208857152,0.0038734323879201916,-0.00033483463134910033,-0.009368546287576624,0.4954152594339793,-0.7370404695413939,-0.9726150401954272
17488,0.517,0.9999997529840188,-0.0004589199132084418,-0.000494654770452479,0.00019682752181167506,0.019995104705768568,0.07512803117500076,9.716098160821554,0.00426717087705918,-0.0024215793539204924,-0.005790009715635148,0.48683199378931097,-0.7385350976046862,-0.9683060960330515
17489,0.525,0.9999997554904425,-0.0004646435061010617,-0.0004898713535975318,0.00018207560194498972,0.07461956877848508,0.09309539652088719,9.747560132708948,0.003121006184537443,0.003541677285166238,-0.012803598711098258,0.4985571284289651,-0.7448776380584029,-0.9689781685801714
17490,0.533,0.999999751791934,-0.00046863277924327746,-0.0004936690626308012,0.00018190724390381824,0.07385403032857409,0.09801189724308075,9.718637332960444,0.0035148907717028675,0.0014550731510012752,-0.009224993339040796,0.4997862667462503,-0.7426737967849373,-0.9699289941693039
17491,0.542,0.9999997417942383,-0.0004605515413201093,-0.0005187970732191649,0.00018749221788569187,0.10099712843385157,0.1095773631794311,9.71990340062784,0.006410019403106421,-0.0037061794563196552,-0.007754410434721777,0.49757610685818254,-0.7417071961102721,-0.968476997557724
17492,0.550,0.999999733756627,-0.0004720465692545757,-0.0005240820924348289,0.00018707397516869593,0.09647408205572679,0.045377390179387314,9.70963841579507,0.0017129340483826383,0.0010981796567834995,-0.009265844998052938,0.499073065354,-0.739485132704798,-0.9721110501160997
17493,0.558,0.9999997268618342,-0.0004746389444206719,-0.0005351872654921839,0.00018592665349112498,0.0811586821599921,0.003124126039975674,9.73279555466992,0.0038732907908785403,-0.000334837774288351,-0.009369017000868412,0.4992608534691193,-0.7336689630822526,-0.9657218775210632
17494,0.567,0.9999997229515812,-0.00047862976324840214,-0.0005389850805832645,0.0001857562763826922,0.10816936860983546,0.014594581293260122,9.734065590874726,0.0035144882093400345,0.0014550086280659498,-0.00922542638887485,0.4999589800098906,-0.7368692230645795,-0.9618309430303388
17495,0.575,0.9999997192588648,-0.00048274163907477044,-0.0005424182654315762,0.00018500034381360115,0.13566148317956853,0.021419307566649975,9.7642587376102,0.003514454379634178,0.00145501127394697,-0.009225509360057515,0.4926999742101325,-0.7421904964476048,-0.9692557590583074
17496,0.583,0.9999997166564959,-0.00048823397066225747,-0.0005394288089831428,0.00019321252130852134,0.0966377616111265,0.04185165761453208,9.738559704673909,0.003173286828588394,0.0030966500416188722,-0.007220614130380505,0.4943785524250966,-0.7390399331889381,-0.9658013923628914
17497,0.592,0.9999997123937782,-0.0004817338076205076,-0.000556008997708491,0.00018438789009572471,0.12362840175844457,0.05340272335880754,9.739828390319945,0.00601625888892323,-0.0016193616093569097,-0.011333590450356142,0.49581979625734773,-0.7414995053694403,-0.9631196551251716
17498,0.600,0.9999997206067424,-0.00047071966253988366,-0.0005554977014847655,0.00016920916107671867,0.13482025587737909,0.027263299673590435,9.735336878165942,0.007081928741187,0.002465539616096936,-0.012867455795412494,0.48829921173869567,-0.7431720061393682,-0.9685687733076699
17499,0.608,0.9999997131120615,-0.00047460482124070223,-0.0005606894281657484,0.00018480644977697118,0.08515187632037463,0.0698948219570549,9.743043929769495,0.0035498269759865067,0.001158743426166528,-0.005503088664269592,0.49141894610951253,-0.7410162050321074,-0.9624227304165127
17500,0.617,0.9999997218640089,-0.00047410168688936363,-0.0005474266276908476,0.00017839165716414108,0.09611084698384563,0.04354842879513389,9.738557480304491,0.004579667451325048,0.005539715785867564,-0.010759927732533883,0.49201066644846947,-0.7424015003033474,-0.9741463864761837
17501,0.625,0.9999997285512457,-0.00047360567780353594,-0.0005349662911828484,0.0001800171222945398,0.10690173522637293,0.01724722967487014,9.734075257229106,0.004597363604071054,0.00539172628329808,-0.008898612248107507,0.49826780197378584,-0.7454006957746636,-0.9638569995341802
17502,0.633,0.9999997407162019,-0.0004671005126944022,-0.000514091624770564,0.0001899853727261962,0.09458876700569843,0.048994174508140705,9.709639391121017,0.006057227335311327,0.007391003358067215,-0.00685327099301199,0.49834707417507906,-0.7385036230130346,-0.9728432614622743
17503,0.642,0.9999997382379792,-0.00046208851842583474,-0.0005236747839027229,0.00018911080189882695,0.08304355690156608,0.07615556360793795,9.71412138302056,0.005675602308649758,2.2399033571497226e-05,-0.009328732207754367,0.4916846565760325,-0.7417320444721021,-0.964866801358491
17504,0.650,0.999999745221532,-0.0004600825737560849,-0.0005172007171952777,0.00017431097148858736,0.06762765586802658,0.03410242285656038,9.737292145910715,0.004921249948815,0.003897608251956659,-0.012765317249817434,0.4939505749658657,-0.7387494145753394,-0.9726395572451771
17505,0.658,0.9999997408391276,-0.0004656724614804286,-0.0005149786442563386,0.0001904411533096242,0.11019373380653942,0.08349170453993894,9.744315521342143,0.0031903876285621652,0.0029486017038573478,-0.005360024115120023,0.4953616398696921,-0.7407439085505174,-0.966536749933593
17506,0.667,0.9999997370423594,-0.000469662167335565,-0.0005187784477631967,0.00019026713575465463,0.10890589811372493,0.09301517375022109,9.686465855943991,0.003514676537735374,0.001454495395782948,-0.009226324421923065,0.4948368549400829,-0.7422368800563541,-0.9624008624845056
17507,0.675,0.9999997333313134,-0.0004735545404522244,-0.0005224605400262026,0.0001900483716648928,0.09409080994602471,0.046195028535950367,9.738565011116714,0.003514642806884296,0.001454498064968244,-0.009226407607191723,0.4870828047571485,-0.7421921530050601,-0.969061166347144
17508,0.683,0.9999997343197091,-0.0004790520387558748,-0.00051814285673555,0.00018275020076146618,0.09389025933193196,0.04647284441296208,9.738565625120627,0.003137201904880089,0.0033919398829623275,-0.010944934637108971,0.49618896481040975,-0.7436006400806748,-0.9772916893263959
17509,0.692,0.9999997332100656,-0.0004846801276688169,-0.0005147618169471416,0.00018353540129550187,0.09306570735679277,0.05135571161232793,9.709641903576546,0.003154797398032795,0.0032442197812910024,-0.009083458560885879,0.49342992178388245,-0.7373094529080733,-0.9689720428925981
17510,0.700,0.9999997306608843,-0.00047965928514886,-0.0005245220140364016,0.0001829802890464591,0.1047381608814175,0.020426298144562056,9.734092625175673,0.005675973538378398,2.2925239944321266e-05,-0.009328989178061941,0.49371029794535576,-0.7311779163100991,-0.9730786105744051
17511,0.708,0.9999997329823486,-0.00048559263410848753,-0.0005196587935931703,0.00016789807589268356,0.10404042840557826,0.02541019450063477,9.705167976273993,0.003119319407988898,0.003539443134879208,-0.01280696707825645,0.49798659288652775,-0.7376165370962255,-0.95965601175117
17512,0.717,0.9999997290846263,-0.0004895827929301387,-0.000523458359084752,0.00016772211975083433,0.09312499429331342,0.04774473670889847,9.738566820250174,0.0035145909822016847,0.0014545504504892104,-0.00922681480819509,0.48991741748407736,-0.7388471514652043,-0.9582706099715218
17513,0.725,0.9999997341908284,-0.00047691743503414693,-0.0005301898720929161,0.00015187735959901202,0.06599508671589127,0.036991687873164446,9.737292800494352,0.007442123740147191,0.0006766742780459873,-0.013011821427532764,0.4961433310994461,-0.7367996476514552,-0.9721186718905102
17514,0.733,0.9999997383735568,-0.0004568891242121047,-0.0005376260637144859,0.000159572435671982,0.09297845636717811,0.048885060141456695,9.738562565105953,0.009296286506235886,0.0005924147275420777,-0.00738625974710931,0.49119201415952957,-0.7405146825627662,-0.9643745750804971
17515,0.742,0.9999997344156815,-0.00046103507621163774,-0.0005414734962176662,0.0001594417693403752,0.09234035417934043,0.05402296225857171,9.709634354902235,0.0035143983168137096,0.0014542149833858702,-0.009227189185973343,0.4963314991456253,-0.7373309881549928,-0.9657725681135665
17516,0.750,0.9999997305308337,-0.0004650260781989217,-0.0005452743126740848,0.00015926371299525646,0.09221852305004241,0.05431441927815836,9.709633886775737,0.0035143646571757716,0.0014542176530886687,-0.00922727254614944,0.5000143439678632,-0.7263283473622189,-0.9681069769943488
17517,0.758,0.9999997341514631,-0.00046343279745586594,-0.0005399148642712452,0.00015943332581823996,0.12014807115712961,0.056659512385049786,9.768759116121025,0.00495516690287766,0.003602367492044106,-0.009043910263953034,0.48854745999979593,-0.7399949379614161,-0.969033336311387
17518,0.767,0.9999997286378296,-0.0004674228753900852,-0.0005443789029549853,0.00016700818385934285,0.1295661540025873,0.04416974320418449,9.677515183987376,0.0035320069956436646,0.0013067860843003257,-0.0073656636745101384,0.4922396350467994,-0.7409482861764386,-0.9724254153744462
17519,0.775,0.99999972273329,-0.00047156508426335575,-0.0005491232497293783,0.0001749953460988805,0.09224940531455825,0.05069740246859195,9.738560230202381,0.0035319838846845832,0.0013067879207996145,-0.007365720979985635,0.48879787642384065,-0.737060348230858,-0.9697436813143833
17520,0.783,0.9999997137061292,-0.000474045513532989,-0.0005610396743521348,0.0001819422845223367,0.10294003720158576,0.028942999806739655,9.705169817365432,0.003892575567419828,-0.00048276219809314104,-0.007508470087276975,0.4885371890816636,-0.7483038109135703,-0.9678690295421308
17521,0.792,0.9999997287944604,-0.0004405125493789108,-0.0005583363519199808,0.00019136409860465248,0.11858480458332514,0.06750338903281872,9.710900210731127,0.012537930644447675,0.003100808157697164,-0.007162645082038408,0.501300380580093,-0.7392178058955738,-0.9755077683128658
17522,0.800,0.9999997285199027,-0.00044450551204827855,-0.0005608145141200379,0.00017567598554886127,0.0811708696204442,0.07439870682322236,9.771940692223202,0.0034790279520180915,0.0017480944152698337,-0.012951437930011038,0.4900120421787781,-0.7365770478935254,-0.9689972238106122
17523,0.808,0.9999997139472162,-0.0004457985744226336,-0.000580885713630892,0.00018958086610634524,0.09137400006606189,0.05725786411670491,9.709624959876972,0.004271119018773442,-0.002419620254869793,-0.005789299480282155,0.4851680666565672,-0.7345941498205344,-0.9734213029752926
17524,0.817,0.9999997163346239,-0.00046031689791461473,-0.0005699565123063546,0.00017489596767681414,0.1188478711731266,0.06410367005274062,9.739823345471555,0.0009558760537077119,0.0049679833262114845,-0.012707313505370412,0.49559718602052044,-0.7412388047900376,-0.9655614072947105
17525,0.825,0.9999997163263552,-0.00045702962492087575,-0.0005724954875290854,0.00017527135547219973,0.09153802009583994,0.053138026922964154,9.73855393205044,0.005315284030879827,0.0018129358420638766,-0.009187414226655272,0.4968348362495196,-0.7373193922528054,-0.9674771394579201
17526,0.833,0.9999997088242094,-0.0004595101324725315,-0.000583750462027896,0.0001744629841845834,0.07573733431436122,0.015620869700884107,9.73282721748713,0.003875153826130251,-0.00033571731871136684,-0.009370603409612736,0.4996108008103431,-0.7384704918639279,-0.9777150035888471
17527,0.842,0.9999997054485186,-0.00045481710418002647,-0.0005934173917792697,0.000173493738332847,0.0903790349753371,0.0631087731503075,9.680693108145624,0.005676225360906172,2.352604871559752e-05,-0.009330065865385283,0.49420743742781126,-0.7355657201675658,-0.9740806222739965
17528,0.850,0.9999996996229985,-0.0004588094181216091,-0.0005978823014433632,0.00018106513886816222,0.0914246965978012,0.05429271245013815,9.738548627126328,0.0035315809498557464,0.001306669740643959,-0.007366456841948007,0.4958455950216845,-0.7407472216654282,-0.966044191721467
17529,0.858,0.9999997076312458,-0.0004495360292918413,-0.0005912443094217249,0.00018189268262585465,0.10305592039442965,0.02345858948530237,9.763026342429894,0.006754830621413562,0.003961846974345883,-0.009004887436895825,0.4888390276815849,-0.740935033716796,-0.974408569821675
17530,0.867,0.9999997059341659,-0.000444514616828661,-0.0006003407551835051,0.00017357797948366386,0.0747584592623285,0.02191890688595485,9.703898470976013,0.005658683483922903,0.00017045392250976274,-0.01119218240344109,0.4944431881569026,-0.7394785064749767,-0.973128470537164
17531,0.875,0.999999711162083,-0.00044278181370791783,-0.0005948098115797079,0.0001667971962770175,0.1178941854499881,0.06690996267588077,9.73981606209077,0.004935875351404482,0.0037493224746356513,-0.01090779313204848,0.4963510126121248,-0.7395132941815388,-0.9679846061070783
17532,0.883,0.999999714074339,-0.00042275526824852943,-0.0006022312994528129,0.00017448978777229404,0.09013894712098657,0.060841368413378664,9.709614712501027,0.009296037023575914,0.0005960017886920961,-0.007387134728034214,0.49026247321555577,-0.7338865931678165,-0.969709225306612
17533,0.892,0.9999997099717421,-0.0004269978313215368,-0.0006060934023850973,0.00017429879980872254,0.10135783291095905,0.034706412105297256,9.705167571281622,0.0035138435139642505,0.0014532071341029022,-0.009228879683099083,0.49878567325803597,-0.7363445087908632,-0.9672091591813304
17534,0.900,0.9999997041939135,-0.0004309909311431947,-0.0006105595047815398,0.00018186806753121615,0.11750815662922243,0.06831855771378693,9.739810947821642,0.0035314443894113637,0.0013064606486060874,-0.007366927736385731,0.4970877861548353,-0.7407306560908747,-0.9684746787852846
17535,0.908,0.9999997003141603,-0.00043511478658643,-0.0006141545653629007,0.00018127570686965447,0.12759875463544504,0.051129685761485626,9.677507055233866,0.003513787963173365,0.0014531840592221493,-0.009229034741297418,0.494443056642305,-0.7372812914313327,-0.9731135621001319
17536,0.917,0.9999997004041958,-0.00043160689481555543,-0.0006164602229391176,0.00018133891042225155,0.09023428213201433,0.05772589781980223,9.738539985107158,0.005314708233341203,0.0018130454197638212,-0.009188530530560863,0.4976081616948903,-0.7375320526660033,-0.9721107197707961
17537,0.925,0.9999996958567785,-0.00043443355776967834,-0.0006264163807854833,0.00016479184730062014,0.12738693726434872,0.05187644749370842,9.67750587154578,0.003840248104070215,-4.294434206308327e-05,-0.013095412408113957,0.4917124627632498,-0.7385367541621414,-0.9680188985310263
17538,0.933,0.999999690235459,-0.0004294111387762731,-0.0006368331225879704,0.0001719844016710296,0.11717610738766368,0.06975925712229179,9.73980473662449,0.005694046002288599,-0.00012277939644781332,-0.007468665333608423,0.5051397039301289,-0.7390250241718401,-0.9679037635287215
17539,0.942,0.9999996987833412,-0.0004215494651541271,-0.000623826265437004,0.00018860028197570657,0.089939204031891,0.058996917618347154,9.738535098843178,0.0064267734243015585,0.0054587627010983285,-0.005140205709651814,0.4929823577944867,-0.7336159532436817,-0.9735898873163542
17540,0.950,0.9999996906287886,-0.000433044989279324,-0.0006291336195527995,0.0001881628374351748,0.0632047469576921,0.04348888086435676,9.766197637286295,0.0017127915735207588,0.0010927651856083831,-0.009270064423436825,0.48824102204479064,-0.7424843281761142,-0.9619724151592204
17541,0.958,0.9999996924378303,-0.00043119935122711554,-0.0006248258390267256,0.00019693662797655922,0.12781816955412226,0.04421963681709138,9.735369076102566,0.004970084645390686,0.0034559704610965247,-0.00718495061250206,0.4948964237093467,-0.7299837462051378,-0.9691535520100416
17542,0.967,0.9999996885583138,-0.0004261759304136784,-0.0006345823259762326,0.00019637368397337442,0.10121015179528212,0.028814955226921454,9.763031310940809,0.005676652988381585,2.3809629409623947e-05,-0.009330858359463491,0.49786118466387136,-0.7421639915283196,-0.9731165415631784
17543,0.975,0.9999996885021071,-0.0004230263467902532,-0.000636849734930559,0.00019612958549713487,0.08980735327713067,0.05592282734863184,9.767463869733488,0.005314442546336513,0.0018131215554220894,-0.009189162917088082,0.4971458443341427,-0.7392211190104846,-0.9750561284967021
17544,0.983,0.9999996963879209,-0.00042255344391165997,-0.0006242525333590321,0.00019743714993869955,0.11597233017096772,0.07217964897467699,9.739801508689402,0.0045899202747927284,0.005391720941121045,-0.00890576211407571,0.49300628065054025,-0.7375038911892625,-0.976301771773442
17545,0.992,0.9999997018902314,-0.00042248902809140655,-0.0006124706887460911,0.00020640282284055294,0.0998539773154209,0.03463696478383828,9.734103760713086,0.0046074619419552865,0.005245369933602717,-0.007043651750985569,0.4982870231856241,-0.7427003017042227,-0.9660359076676206
17546,1.000,0.9999997077021634,-0.0004204992391118866,-0.0006066657469400509,0.00019933050354051048,0.09948658117976732,0.03503143634230073,9.734106110664055,0.004934693115065218,0.003748729935803528,-0.010909857555045912,0.4909805077666193,-0.7458608043076216,-0.9680750541204958
17547,1.008,0.9999997059643385,-0.00041529629197711854,-0.0006157075255291884,0.00019106142897055734,0.0723145323316293,0.02419373046174032,9.732835716385882,0.005659550211115048,0.00017020158217603547,-0.01119321165875967,0.4917580526360144,-0.7446053415768128,-0.9731869464879013
17548,1.017,0.9999997058137683,-0.00042080810780796,-0.0006120645212610538,0.00019149395643323805,0.099182986806544,0.03583602186722485,9.734106279444472,0.003151224610847215,0.0032417937060375945,-0.009088539494963717,0.4869267207731432,-0.7379739390669525,-0.9790443053231669
17549,1.025,0.9999997034073911,-0.0004175959943800232,-0.0006155056869374077,0.0001998786260843482,0.08709446493791782,0.06740668680194829,9.709599138445476,0.005332068522728265,0.001667094651067456,-0.0073272416518843425,0.48951321675356935,-0.7400032207486928,-0.9678040943808596
17550,1.033,0.9999997131374322,-0.0004081069949992542,-0.0006081973438135938,0.00019305368580367865,0.09819661868905774,0.041253350345563974,9.705174452002284,0.006735026801079002,0.004109475930921986,-0.010869811238075603,0.49594263629579177,-0.7428698916235821,-0.9770447479408971
17551,1.042,0.9999997051517715,-0.0004107350816709238,-0.0006196422233086684,0.00019244889666288181,0.08669725924868904,0.06833810179075078,9.709596181959506,0.0038765853908390322,-0.0003368567209035025,-0.009371777321922346,0.4949013153190921,-0.7397458332842007,-0.9697080627427354
17552,1.050,0.9999996991193725,-0.00041320990001011667,-0.0006302439528143639,0.00018387850086978058,0.12561170839596034,0.04873228969474174,9.73537625155791,0.003859021304515859,-0.00019076695733968404,-0.01123421350786713,0.4909930491368276,-0.7395033548368068,-0.9694967383400561
17553,1.058,0.9999996988997751,-0.000418859652418372,-0.0006266936451928297,0.00018442349681000795,0.09902768555150317,0.03317101315568291,9.763039863156502,0.003150720084630544,0.003241567629193682,-0.009089188970633573,0.4873547566833065,-0.7392409976999487,-0.9722127664128954
17554,1.067,0.9999997026244835,-0.0004258934722024565,-0.0006156010719816632,0.00018547510815787843,0.09759365635391686,0.04255122098200557,9.705174929595033,0.0027877136783766095,0.0050307525291705315,-0.008947924221223796,0.4969121887043305,-0.7343301361262212,-0.9762457797677958
17555,1.075,0.9999996965527708,-0.00042130716210741494,-0.0006262770654014652,0.00019279958272470622,0.12548927424074224,0.045065673207327454,9.764314264549597,0.0056949351480138615,-0.0001215831821024345,-0.007468929047546948,0.49119629203448606,-0.7400230994381567,-0.964859513107041
17556,1.083,0.9999997023452996,-0.00041932140466994014,-0.000620472698414593,0.00018572157255814442,0.0966951016866482,0.04790138689911252,9.676240833298147,0.004933686757453798,0.0037486755042386364,-0.01091127144060365,0.49615012784294055,-0.7424097830906241,-0.9728891477484188
17557,1.092,0.9999997043055758,-0.0004173631326198619,-0.0006160088691357685,0.00019424173043731157,0.11313881445459481,0.07712499138694622,9.739796930555485,0.0049686286821908265,0.0034568249714572717,-0.007186529953232879,0.4912929826029997,-0.7362865292799264,-0.9758203134943855
17558,1.100,0.9999997062134011,-0.0004138566902040095,-0.0006176553156861422,0.0001865413154459676,0.07027158448158352,0.028307525184730866,9.73283958558296,0.005296878898094973,0.0019594638056889876,-0.01105269914716725,0.48730708632399594,-0.7343947418669793,-0.9668088754147629
17559,1.108,0.9999997077477932,-0.0004122755871075036,-0.0006135015930280532,0.00019531759731719102,0.08568835979443204,0.06667307179630329,9.738523900247896,0.00496846103820982,0.003456900598742993,-0.007186735143477919,0.48499242536786324,-0.7274612248413329,-0.9811874344787931
17560,1.117,0.999999693931112,-0.000422248229572077,-0.0006269262115562237,0.00020200901127683064,0.09694038621109459,0.04032383057573584,9.73411131466839,0.0020940981080505984,-0.0008443693183648158,-0.0075503516806096896,0.48464530376257176,-0.7338882497252719,-0.9695146325954488
17561,1.125,0.9999997005147498,-0.000431580312742942,-0.0006090744778030474,0.00020429665860584564,0.08478566574879268,0.07171200275185974,9.709588731138814,0.0024233988790570734,0.006819435062311292,-0.008807887540019765,0.4851619567115269,-0.7404583596092847,-0.9727286822885517
17562,1.133,0.9999996964947043,-0.00043557412493709,-0.0006128849842846236,0.00020410212392313305,0.12335339876642926,0.052069613791825654,9.735387850041672,0.0035138786646848057,0.0014521458161779663,-0.009231152398584214,0.49858219655664854,-0.7319186041119238,-0.9718198805262885
17563,1.142,0.9999997034827295,-0.00044298530278837956,-0.0006006771473156415,0.00018969828663569616,0.08525399866288903,0.06310695340332538,9.767460900389883,0.0027518209419218676,0.005321811478048034,-0.012674261898937722,0.48661625335964354,-0.7451052074886988,-0.971526606525517
17564,1.150,0.9999996981480819,-0.0004304583317967143,-0.0006108910154225343,0.00021265356096203053,0.12340062117220608,0.04820539851787359,9.76432588913137,0.00753077759851464,-5.039548726229507e-05,-0.0037031775347102064,0.49687330789866213,-0.7324068741216225,-0.971838268710808
17565,1.158,0.9999996996609267,-0.00043619478770663163,-0.0006067768073342344,0.00020550929434315766,0.13354619318180633,0.031116747653688586,9.702048117350294,0.003132767150711355,0.003386730652783267,-0.010953016496266814,0.48927331966411913,-0.7387792326095355,-0.9682862165281803
17566,1.167,0.9999996997729846,-0.0004326890694549912,-0.00060907943391734,0.000205563501852015,0.08413462393946958,0.06887404250146398,9.738522130066427,0.005314356808675459,0.0018139597423036857,-0.009190736734786174,0.49947338275334413,-0.7454122916768511,-0.9621373529913143
17567,1.175,0.9999997074574125,-0.00043205385877909895,-0.0005963336088958161,0.00020688349246019994,0.09521386601421364,0.04264597886031839,9.734118460423696,0.004586603109251491,0.005392045818952148,-0.00890910779395454,0.49804476796769964,-0.7380600800546301,-0.966250713406616
17568,1.183,0.999999716787734,-0.000431594888956874,-0.0005830800386961538,0.00020041949065308134,0.09422472023714298,0.047575470402752264,9.70518489413451,0.004569191829418111,0.00553761325839121,-0.010771841546835184,0.49371291910302517,-0.7389885799078226,-0.9733757438567948
17569,1.192,0.9999997133750849,-0.0004192401404016963,-0.0005925414469749688,0.00021536500877229265,0.06754520442400952,0.03219906303642051,9.732846792650625,0.0075135830472159645,9.612000943657287e-05,-0.005565599418560411,0.4978069513647955,-0.7356137603337708,-0.9669686785951942
17570,1.200,0.9999997213960929,-0.0004082334970629616,-0.0005920235296777722,0.0002001531640944436,0.1052695284572738,0.022033614441424817,9.700784299224672,0.007080123962362378,0.0024670145104937775,-0.012875582083595384,0.4933976185307125,-0.7373343012699033,-0.9653101602984654
17571,1.208,0.9999997248994162,-0.00041541831819341424,-0.000580761049955067,0.0002008614347062745,0.055204414614480966,0.06438148957202976,9.708306304036666,0.002785718449147082,0.005029626922552194,-0.008950565954923813,0.4978263040912313,-0.735110581306974,-0.9691624951656668
17572,1.217,0.9999997288896306,-0.00040441293081449557,-0.0005815530817422636,0.00020116376410595494,0.09382456539059959,0.044938147103758055,9.734121638762073,0.007114806893598884,0.0021763535090069557,-0.009150372079118296,0.49150751931010517,-0.7455868512685762,-0.9724633495408765
17573,1.225,0.999999725029181,-0.00040853476050562484,-0.000585377016362403,0.00020093446947314682,0.09421486394544742,0.040833161104608426,9.763058454052526,0.003514121361510121,0.0014515212324239695,-0.009232014903778623,0.4980469653561102,-0.7387908285117228,-0.966499808391902
17574,1.233,0.9999997287014205,-0.0004065543564113396,-0.0005802293970964904,0.00020160478094203633,0.0815326732280719,0.07690035765527223,9.709576885651645,0.004950028531837928,0.003602976336718974,-0.009050795201242393,0.49299807560622083,-0.7443462975548655,-0.9753716515524398
17575,1.242,0.9999997192869801,-0.00040909924940434706,-0.0005921152969943774,0.00020847839393028103,0.09333576641103564,0.046092070416490064,9.73412094118926,0.003895859873636417,-0.00048275577300024803,-0.007509913067288639,0.49297220377821876,-0.7438779062346308,-0.9724388324911266
17576,1.250,0.9999997112880241,-0.0004130938888514822,-0.0005972379640958407,0.00022379482093280115,0.0933057516355245,0.04639907365307054,9.734119770362597,0.003548650211721173,0.001160949757417549,-0.005506739708334091,0.4922179095791563,-0.7377910966879506,-0.9699626259026447
17577,1.258,0.9999997167354482,-0.00039471541596573616,-0.000597301054897395,0.00023229338007329711,0.08176207977634029,0.07354005735995243,9.738508222439265,0.008932118792062271,0.0023941331807498414,-0.007247284869620548,0.49393737602266946,-0.7341207888279339,-0.9711433308404563
17578,1.267,0.9999997245143677,-0.0004017601452458144,-0.0005849077943058353,0.00021781379044355615,0.0928423148575896,0.04739178206457317,9.734119419709534,0.002750290763645,0.005319294936333893,-0.01267728772959578,0.4904899458366624,-0.7434211108165836,-0.9678186708837595
17579,1.275,0.9999997108805726,-0.0004118867734877845,-0.0005984374941511557,0.00022463442200859273,0.09211702081654739,0.05213270045876167,9.70518171713517,0.0020958588713649133,-0.0008456191153534805,-0.007550789131144431,0.4897920969378194,-0.7448594159263943,-0.9717410787415517
17580,1.283,0.9999997184960556,-0.000402410151647337,-0.0005917771150745225,0.00022555204722721607,0.10447037598736719,0.016798264405349626,9.758672326106833,0.00674970925712726,0.003965893502428445,-0.009010718065764282,0.49709231244625396,-0.7443893680487043,-0.9689877771928892
17581,1.292,0.9999997184683013,-0.00039882508467572157,-0.0005941337686505456,0.00022584715109997676,0.09174950287862349,0.0529915685100218,9.705180547721207,0.005314282029661832,0.0018140679242268335,-0.009191876708104153,0.5002917281748898,-0.7421722743155962,-0.971874378033926
17582,1.300,0.9999997167510288,-0.0004028168864844048,-0.0005972950440551604,0.0002178876973515369,0.10355452135638417,0.022196631872016963,9.729735758531723,0.0034968087895630084,0.0015960782235375595,-0.011095615931008879,0.4960922011782307,-0.7461165352146583,-0.9663226064740335
17583,1.308,0.9999997222079463,-0.00040227612995584754,-0.0005851187898604469,0.00022670233301847346,0.1302536415236335,0.033884235077423226,9.731013173413338,0.004601510330564859,0.005246940358819386,-0.007048798074748182,0.48878105717867587,-0.7439093808262822,-0.967837059068279
17584,1.317,0.9999997184000883,-0.00040626844888486346,-0.0005889338998307271,0.00022650066991190807,0.09105183182818909,0.05402438997709453,9.705181423404081,0.0035141541018627906,0.001451026229642623,-0.009232870535786246,0.4858856628256388,-0.7392443108148593,-0.9717374369990694
17585,1.325,0.9999997277733181,-0.00038782383452314647,-0.0005879259128221606,0.00021997519067690774,0.1183947346966133,0.06136035468606461,9.73539529400331,0.008897260574607296,0.002685588127106671,-0.010973491857934609,0.4912996332191636,-0.7394553146706019,-0.9765742244222585
17586,1.333,0.9999997217253324,-0.0004008445740748415,-0.0005864600925767676,0.00022789788344355265,0.09119475312425317,0.050427883926801774,9.734119738531135,0.0013660559249255686,0.0027315404340766502,-0.007270889415506168,0.4917554607038111,-0.7372829479887879,-0.9728931261915188
17587,1.342,0.9999997155523465,-0.00039619870415270804,-0.0005971387292350158,0.00023525975273206587,0.07859159257029588,0.08639696933098634,9.680616151182631,0.005696677463256872,-0.00011940970272666051,-0.007469392643985392,0.49177265988003555,-0.7367814255194466,-0.9748428172557158
17588,1.350,0.999999717600671,-0.0004017199132563812,-0.000592852996693747,0.00022791449028361187,0.09148727684167945,0.046558986964286356,9.76305876801364,0.0031315628851216405,0.003384415961631944,-0.010956209654687476,0.4946869393520504,-0.7331309963488938,-0.9730832481192836
17589,1.358,0.9999997173633598,-0.000398727033076787,-0.0005953080255329809,0.00022781200302046716,0.10628454523700322,0.08942036630307082,9.73976901650693,0.005314149784418241,0.0018143347878481811,-0.009192495315435097,0.48856656430976964,-0.7353414638521806,-0.9711989925007989
17590,1.367,0.9999997173716836,-0.00039522211087803503,-0.0005976090273033228,0.0002278584801319831,0.09058308183967329,0.051873177313487395,9.734117855761474,0.005314111315011788,0.00181433797852841,-0.009192593837596044,0.49588205924794637,-0.7382777101401939,-0.970177760398115
17591,1.375,0.9999997206949608,-0.0004025745088829653,-0.0005866428937080239,0.00022889709797745624,0.10226558414152709,0.021065931664281126,9.758687399969805,0.002783030671888952,0.005028275064477515,-0.00895374187349537,0.49956594157423195,-0.7446086546917235,-0.9726297802821505
17592,1.383,0.9999997223430639,-0.0003915730912657783,-0.0005880797945155107,0.0002369524529285601,0.08947511642862238,0.05713801116758886,9.705178257275728,0.007131337672104823,0.00203346832227252,-0.007288828569919548,0.49389241449742677,-0.738550006621784,-0.9660465120827348
17593,1.392,0.999999717061236,-0.0004030864516373653,-0.0005925965820733762,0.00022853457345978947,0.10184258595114114,0.021842764878179575,9.758690114912634,0.0016970056022537188,0.0012314268024196289,-0.011137493901314162,0.49785421256758006,-0.7336242360309585,-0.972326187789227
17594,1.400,0.9999997013041197,-0.00040401903719422083,-0.0006126152681327302,0.0002426166155208481,0.10081529531384872,0.0311319781335664,9.700806679428624,0.004279883322204913,-0.002416021459184628,-0.005787098162394955,0.4929628881661863,-0.7321660522316837,-0.9713828188018533
17595,1.408,0.9999997094920825,-0.0003935421923461507,-0.0006120724368029599,0.0002269529166120827,0.1174183437461767,0.060556195208141934,9.764330874333423,0.007079478354137221,0.0024674930462226844,-0.012878416352814837,0.4977964466429341,-0.7400164732083355,-0.9657778679378809
17596,1.417,0.9999997110617216,-0.0003915719005784771,-0.0006075756442405738,0.00023537153037826226,0.07413871578992089,0.016199124777069283,9.728472360562161,0.0049651923602903325,0.003458712474967,-0.007190353681372134,0.4944258866915466,-0.7382710839103725,-0.9711671840219419
17597,1.425,0.9999997034938845,-0.0003941373191631707,-0.000618689201645731,0.00023428954072972667,0.08900114983480752,0.059074532104554656,9.705171019991504,0.0038798981484313533,-0.0003382876620362414,-0.009373650658432379,0.4985178238540377,-0.7358744609131732,-0.9645226192260803
17598,1.433,0.999999699520888,-0.0003891013103542845,-0.0006284379399690077,0.00023371790619095616,0.11651159297185193,0.06633632907832646,9.73538537739975,0.0056797678976704315,2.5823876285450845e-05,-0.009332953152729225,0.4927231079786005,-0.7328951441313211,-0.9718781928932025
17599,1.442,0.9999997108709425,-0.0003724573698379288,-0.0006201212500516058,0.0002344849140225027,0.08936551509632817,0.05553761404247089,9.734108894126386,0.00854739450189953,0.004331577309683885,-0.00897236146866213,0.49611369284214485,-0.745367564625557,-0.968758892057778
17600,1.450,0.9999997143535394,-0.0003614571833151035,-0.000620903398865406,0.00023477758311898136,0.07765187337459663,0.08279347333654442,9.738467589258567,0.007113595937333997,0.0021786463051735373,-0.009152784034400323,0.49300463854598625,-0.7460502729164448,-0.9761156235222913
17601,1.458,0.9999996984236205,-0.00036078526511740554,-0.0006471153554048571,0.00023286987274679627,0.08916329017215117,0.056662112048540554,9.73410426625047,0.0046124252634316834,-0.003916017887940066,-0.009652807566297552,0.49441491436222706,-0.7348614766297585,-0.9699233655885144
17602,1.467,0.9999997027198603,-0.0003678475747343058,-0.000636037904969533,0.00023388915474691101,0.10056332299647751,0.030356410291548352,9.729745098231456,0.0027810949681663383,0.005027306568810839,-0.008955744880792904,0.4998167817675356,-0.7487539801017961,-0.9733881635822502
17603,1.475,0.9999996888838826,-0.0003779039261738475,-0.0006493576815023083,0.00024032345335669002,0.12788978931515482,0.03744651449609724,9.759963170678889,0.002097417780603373,-0.0008473249444301647,-0.00755155516706991,0.4888193827004878,-0.7365555126466058,-0.9721816233911312
17604,1.483,0.9999996927980525,-0.0003759362547993825,-0.0006442090388270228,0.0002409781061778832,0.100277921539124,0.030853626574123993,9.729746479992954,0.004947034032273019,0.003603196295829567,-0.009054595365296847,0.49397634450473626,-0.7375088608616285,-0.9755607808554655
17605,1.492,0.9999996922502838,-0.00037284334470631556,-0.000646768690372932,0.00024119999852875558,0.10059283715192563,0.026771777228943788,9.758690800816723,0.005313450436254639,0.0018145684327276514,-0.00919403798911014,0.48929697949097767,-0.738272740467828,-0.9709682841112037
17606,1.500,0.9999996943144751,-0.0003693397860741495,-0.0006484182240764153,0.00023347994739338204,0.0999002917050233,0.031715766528751174,9.729747592393904,0.005296229846413526,0.0019586922572228135,-0.01105742478577775,0.4890915099794426,-0.7365339773996866,-0.9753531013729255
17607,1.508,0.9999996994946354,-0.00035870252228673206,-0.0006489047428118203,0.00022641946503390952,0.06076972164624892,0.051936837893860256,9.703881925270096,0.007095925218043917,0.0023234373819961372,-0.011016810520444615,0.4980772319609333,-0.7407207167461427,-0.9699308174237877
17608,1.517,0.9999997090963167,-0.00034923842815536477,-0.0006415857280302872,0.00021956219273526744,0.12587946125831231,0.048702175703666105,9.702078282064655,0.006729174349799384,0.004112035908837678,-0.010877761848615419,0.4951821590880236,-0.7414266168414054,-0.9738676382006566
17609,1.525,0.9999996995894649,-0.0003608680153592291,-0.000647482564218275,0.00022663094295133173,0.1147426435651199,0.07116131087050225,9.735372313572759,0.0017310926895063642,0.0009407926927161519,-0.007412612363906268,0.49417741923945024,-0.7377861270155848,-0.9706777736231713
17610,1.533,0.9999997044232968,-0.00034083622289606886,-0.000653537943226089,0.00021879704163793,0.07168493674094718,0.026690539064400803,9.699530469775576,0.009262352824371253,0.0008999957690763384,-0.011115506449159514,0.49263545538019116,-0.743705003200361,-0.9619419328280634
17611,1.542,0.9999996962803525,-0.00034478004188780745,-0.0006585851576166855,0.00023416130414195187,0.09855310054796121,0.0386238283238046,9.700802989247013,0.0035478585571859385,0.0011617548212687111,-0.005508657215750558,0.49491637555783835,-0.7394901023771641,-0.9714152847936603
17612,1.550,0.999999692420497,-0.00034877534846777304,-0.0006624069331426973,0.00023394812039395846,0.04908761848218908,0.07621805664987473,9.737164680202078,0.0035135206787475395,0.0014494720642247289,-0.009235486904348502,0.49346868568768626,-0.7372796348738772,-0.9733663020055573
17613,1.558,0.9999996903795937,-0.0003546029369442462,-0.0006594841486101678,0.0002420291950872464,0.12521067464179467,0.050606124844230715,9.702077190737672,0.0031636235903740907,0.0030941847462256375,-0.007233155764371283,0.489243243024826,-0.7400230994381568,-0.964876741905341
17614,1.567,0.9999996936362933,-0.0003436061357358217,-0.0006602611159777881,0.00024231673972370125,0.07162763124159545,0.02370410464123542,9.728475781919979,0.007112791831199879,0.002179894258224639,-0.009154130918291674,0.49150045953741545,-0.7355822857421191,-0.9716630568089037
17615,1.575,0.9999996973159573,-0.00034180831234017486,-0.0006552625596907847,0.0002432407240036008,0.08686500082568802,0.062220111538124574,9.734091107225163,0.004945984603547453,0.0036031328258662597,-0.009056070810171834,0.492626870404812,-0.744199899439881,-0.9609687437889685
17616,1.583,0.999999695015789,-0.00033676770283154543,-0.000664361291020364,0.00023490406215577583,0.11312059810371743,0.07856925879262709,9.706417644971564,0.005663265403506648,0.00016982698791865168,-0.011197382003994871,0.4967136182254213,-0.7399104535311939,-0.9814126683384511
17617,1.592,0.9999996907978691,-0.0003423706642553464,-0.000662022777240174,0.0002508233191313864,0.09752135790276996,0.04091013399725302,9.700804043907391,0.0031804412098800183,0.0029503804988564473,-0.005370128474932891,0.4936573359540566,-0.745867430537443,-0.9670748624977313
17618,1.600,0.9999996885024866,-0.0003373296570164063,-0.0006711215229952667,0.00024248615118265858,0.08698002526353106,0.05889825720196817,9.763033321942007,0.0056633215583001,0.0001698118182847642,-0.011197516200559147,0.4879160058391776,-0.7352785146688777,-0.9804822225386308
17619,1.608,0.9999996842650568,-0.0003415652161225175,-0.0006752292492855183,0.00024262821632159152,0.09732343416691817,0.04165353873447313,9.700802867920345,0.0035134327970591235,0.0014491265816304704,-0.009236096990902195,0.4939244693341346,-0.7343748631775152,-0.9696802342958069
17620,1.617,0.9999996781910514,-0.00032903520958714607,-0.0006847483787920812,0.0002578241312739643,0.09832884522787003,0.03313269623767177,9.75869435268526,0.007514211136441927,0.00010479695861627385,-0.0055663904921438075,0.49248551056669243,-0.7341108494832017,-0.9726210054768344
17621,1.625,0.9999996740384914,-0.00031696071688348663,-0.0006936815672953428,0.00026507489262386503,0.09777707581705153,0.03823284687562592,9.729745735420163,0.007497045054745463,0.0002483120705410079,-0.007430011241896074,0.49859350497882865,-0.7409433165040726,-0.9731017982987981
17622,1.633,0.9999996726386124,-0.0003209548612368481,-0.0006968587159610562,0.00025709643238220595,0.08620936364021146,0.06528524778238844,9.734076860383503,0.003496131471757537,0.0015922011750982524,-0.011099984032712958,0.4936827694000666,-0.7390117717121973,-0.9699579867689376
17623,1.642,0.9999996617398595,-0.0003235941689501699,-0.0007086794105378532,0.0002637811090112429,0.12405901140337702,0.05490975290849228,9.702068582851162,0.003898058839609416,-0.0004830871098029533,-0.007511526011314116,0.49294814940756754,-0.7377927532454059,-0.9697120395970067
17624,1.650,0.9999996620730897,-0.0003126027997176717,-0.0007101013808149927,0.00027182572542645817,0.12452881880173673,0.05088239949152205,9.731014083434646,0.007129226956897036,0.00203710138762279,-0.007291672837654438,0.5026767256513429,-0.7368443747027494,-0.9654691360268092
17625,1.658,0.99999966811878,-0.0003182977442848352,-0.0007048729391292891,0.00025613085659066746,0.11280285998724814,0.07790516702466185,9.735343352995283,0.003111048145422528,0.003523679053163876,-0.012825436347619689,0.490777294094427,-0.7458293297159702,-0.972715592339518
17626,1.667,0.9999996697137387,-0.0003163425200842159,-0.0007003722248267757,0.0002645346302775516,0.08557232909567676,0.06680150888825495,9.734072194549666,0.004961837518364757,0.0034597657435707007,-0.007193989165493798,0.4914036520670372,-0.7373657758615547,-0.9606890044775306
17627,1.675,0.9999996763294351,-0.0003083431231719225,-0.0006876056224973453,0.00028189368826304613,0.09670674059859115,0.04067120814175318,9.729746546039308,0.006410393010949453,0.005470973179815502,-0.0051512914811406435,0.4934835413481696,-0.7336060138989497,-0.9750503331544323
17628,1.683,0.9999996769796725,-0.00031388021358112636,-0.0006839847597969475,0.00028228462617910764,0.08484947994998758,0.06765976031610982,9.73407259411305,0.003145385938202637,0.0032367859396368434,-0.009098497325749775,0.4973360490286686,-0.737797722917772,-0.9689408982820055
17629,1.692,0.9999996947340584,-0.00031542572948000026,-0.0006626139972879252,0.00026829291818248236,0.10688533468264272,0.01925019495624791,9.696480411476394,0.004174461471497246,0.007466151952539149,-0.01250855784377798,0.49754570873876186,-0.7375800928322079,-0.9650310800888062
17630,1.700,0.9999996927174192,-0.0003209652214281221,-0.0006596397507336022,0.0002764449191383976,0.09495032444678114,0.04614910115137802,9.700806041224729,0.003162447086405052,0.003093627646263664,-0.007234965834504276,0.49740938663771833,-0.7396944800030852,-0.9772544174394013
17631,1.708,0.9999996957654059,-0.0003102071400072321,-0.0006602343475470619,0.0002762810757228233,0.09579697091547859,0.03762534431497044,9.758703247871885,0.007112310334466419,0.0021811138401948535,-0.0091554536455872,0.49021534352736884,-0.7380733325142729,-0.9643666245496113
17632,1.717,0.999999694206558,-0.0002976702407622677,-0.0006684528373619071,0.0002759529359837761,0.06822226211124252,0.03124465280629859,9.728478963155094,0.007480550086789375,0.0003927738173824073,-0.009293780380112504,0.4934406310840067,-0.7363246301013993,-0.9701860444519614
17633,1.725,0.9999996996027845,-0.00029741915418933686,-0.0006565466541897682,0.0002851011741367729,0.09439507429797182,0.04766246584520791,9.700804143390519,0.004593151592970261,0.005248259410019125,-0.007056439831437096,0.5014256719008848,-0.7327172714246853,-0.9620339865568288
17634,1.733,0.9999997059761361,-0.00029545975525274904,-0.0006507528785734828,0.00027797817514304613,0.10997739106632894,0.08163363691594983,9.735345131672915,0.004927561358073028,0.0037459299189054203,-0.010922176995904673,0.4972870580449316,-0.7468688189186704,-0.9633873018788006
17635,1.742,0.9999997043566059,-0.0002902589483896432,-0.0006593106977455539,0.0002689718341668944,0.0949259488946958,0.03955721201017814,9.758704119118605,0.005664503240237504,0.00016931022450720546,-0.011198430576536732,0.4941172367353977,-0.7397855906631288,-0.9638555113914855
17636,1.750,0.9999997050091706,-0.0002957974801064113,-0.0006556914936347834,0.0002693586612109451,0.09372346748139906,0.04885515193401071,9.700804721229126,0.003145026193023112,0.003236286793520704,-0.009099480365285798,0.48783031682544953,-0.7429129621174209,-0.9707685535707209
17637,1.758,0.9999996936730113,-0.00030569597389618395,-0.0006686035814146823,0.00026865052808698717,0.09361745739137314,0.049073693688918174,9.70080464132537,0.002083057875391564,-0.0007070605707974038,-0.009416336547130633,0.48631585228601326,-0.7405097128904001,-0.9651500235950734
17638,1.767,0.9999996931898543,-0.00030219684280351737,-0.0006709015911046184,0.0002686788435229259,0.08257558050265887,0.07150362906996865,9.734064672870003,0.005312746469722283,0.0018149134397959237,-0.009196881606327666,0.49295708508854025,-0.7431570971222702,-0.9707249844681872
17639,1.775,0.999999694918025,-0.0002986491678696181,-0.0006727570513431059,0.00026147749683035147,0.07853981381870553,0.007298677358862148,9.724168647640804,0.005295725857456985,0.0019577485648710085,-0.01106085233568029,0.4946421531796045,-0.7404898342009362,-0.968006307277605
17640,1.783,0.9999997012198768,-0.0002966923477856473,-0.0006669628953760955,0.0002543507499837728,0.10523597844530884,0.01919034952989461,9.7254447468903,0.004926803130322441,0.0037460004285578778,-0.010923094058825335,0.488813185079049,-0.74095491240626,-0.9714790637463689
17641,1.792,0.9999997115446922,-0.000296373806118442,-0.0006538518650672339,0.00024809441379678744,0.09332688691663835,0.04616965198376431,9.729755014183057,0.004557793566937887,0.0055342386185490006,-0.010785386966462519,0.48487925164704543,-0.7436619327065224,-0.9683581111844265
17642,1.800,0.9999997043717231,-0.000291332006311997,-0.0006642410252358034,0.00025527629947352695,0.09363288112280248,0.04213337058335922,9.758705828946445,0.005698736153653733,-0.00011584951671435298,-0.007471055838283856,0.49293357138901245,-0.7461049393124709,-0.9680594818151994
17643,1.808,0.9999996991000709,-0.00030418250258877416,-0.0006630516918793326,0.000263884874693085,0.08093077639978948,0.0779269923775176,9.705108609505723,0.0013622645377518675,0.00272612449517623,-0.007277201286032725,0.4990168392447764,-0.7356220431210473,-0.9657372830648792
17644,1.817,0.9999997049199302,-0.0002856956698341683,-0.0006622865623630077,0.0002644135891656403,0.1081653484980792,0.08536939583759565,9.735333392335322,0.00891091069555577,0.002549709331014835,-0.009115728313315485,0.4933739733165871,-0.73808492841646,-0.9626297492084455
17645,1.825,0.9999997090051393,-0.000283824675484439,-0.0006568173456491438,0.0002646207951548981,0.09199644289374896,0.05233133166400423,9.700803123935147,0.004943451796256832,0.0036032040890312676,-0.009059793231124462,0.496850174130194,-0.7417022264379062,-0.969215834875913
17646,1.833,0.999999712758337,-0.0002818719583596214,-0.0006516685181518481,0.0002652538135862754,0.08121569551581372,0.07041201234196463,9.763006726266829,0.004943412786311826,0.0036032074189588682,-0.009059895805340161,0.49850928271685785,-0.7371017621672412,-0.9635543996659961
17647,1.842,0.9999997137579816,-0.0002874520039886511,-0.0006477158483234539,0.0002651782056634116,0.0919481452551066,0.04861867333699113,9.729756211047304,0.003144317399646453,0.003235721659423669,-0.009100819622088498,0.49464854076657316,-0.7392641895043234,-0.9687304013314136
17648,1.850,0.9999997229484114,-0.0002780030429192203,-0.0006403900266561225,0.0002582983208281088,0.11962061613152256,0.051609849560657166,9.788937160593814,0.006725486141278723,0.004113331081181193,-0.01088327677919771,0.4951494174528617,-0.7341274150577551,-0.9701560608164169
17649,1.858,0.999999733123705,-0.00027790774245447234,-0.0006270889023500202,0.00025155379910947765,0.09177670411369052,0.045041688503391096,9.758710472543129,0.004556888998522301,0.005533840473335625,-0.010786787514461015,0.4980618794675258,-0.7360937475561928,-0.9681904655127914
17650,1.867,0.999999730831586,-0.0002728570501150848,-0.0006361881482103843,0.00024320860587170217,0.1300100469230286,0.030378764635727758,9.755693614439783,0.0056656518101675536,0.0001694502165960393,-0.01119925306033895,0.4914686531171698,-0.7439077242688269,-0.9680574949768923
17651,1.875,0.999999733276964,-0.00026194390218067093,-0.0006368625411824298,0.0002433875449389152,0.08986335923205749,0.05933567880728485,9.671851561670033,0.0071117289253792935,0.002183022204089799,-0.009157032767370244,0.4895646681549122,-0.7360573032921753,-0.9736366026434147
17652,1.883,0.9999997381380045,-0.0002690344201917479,-0.0006258006755315637,0.00024437249975950344,0.0516219014723804,0.07037563585981577,9.703818694221866,0.0027742513160830973,0.005023484266767041,-0.00896416072306487,0.5021888433299877,-0.7431918848288322,-0.965516512044477
17653,1.892,0.9999997306410711,-0.00027164174357771935,-0.0006369655541954495,0.000243317551680446,0.0519523444925202,0.06620329782975362,9.732770616737042,0.003883703260614863,-0.00034079900273954473,-0.009376189057726757,0.49251394510143165,-0.7414133643817625,-0.9758443318485231
17654,1.900,0.999999732417795,-0.00028622651730980615,-0.0006274378523922509,0.00024405011833052544,0.06333178607302448,0.039828292714883216,9.728480673530761,0.0009750487665204897,0.004655436061667902,-0.009005288737355321,0.4929287966811317,-0.7382959322722026,-0.9675182230265342
17655,1.908,0.9999997222449111,-0.0002889094340646465,-0.0006395065023774933,0.0002511431330924315,0.10595137404835386,0.0851664687636087,9.764278391105627,0.003900629454508667,-0.0004829290087702781,-0.007512108962434615,0.4927017624420172,-0.736085464768916,-0.9694584722394938
17656,1.917,0.9999997138369817,-0.00029290986094182374,-0.0006446227010404713,0.0002664420039015409,0.14113258284134853,0.0013074936702729548,9.780365450093193,0.0035473873139069702,0.0011629210644151582,-0.005510751055617197,0.49729713899753414,-0.7353861909034747,-0.9645300742390105
17657,1.925,0.9999997159072856,-0.00028967079723669795,-0.000646129090162225,0.00025844414564040374,0.14048043628035523,0.00611979812412986,9.751413847302226,0.005295847180445828,0.0019576613601548156,-0.01106248915069459,0.49169085419747127,-0.737332644712448,-0.9655693610032533
17658,1.933,0.9999997315376083,-0.0002817726724908679,-0.0006307118979925438,0.0002444000300509869,0.1280628324435874,0.0376202961388974,9.72674973494618,0.006337555523007467,0.006044158295598673,-0.012611636168192617,0.49445608023270426,-0.7389802971205459,-0.9745899105888098
17659,1.942,0.9999997291570567,-0.00027104891189814524,-0.0006328371133252032,0.0002602604254841049,0.15464855167174058,0.04968709800727199,9.728029849638704,0.007145062060640113,0.0018997392417982027,-0.005429090198102479,0.49781607701129804,-0.7441518592736762,-0.9680031578754211
17660,1.950,0.9999997403007717,-0.00027969102383514636,-0.0006136889115187653,0.00025408116863132935,0.11580507309714688,0.06514319766303368,9.731036793975067,0.002386218926403102,0.006953104329300578,-0.01069255202663546,0.5017845987612806,-0.7436155490977728,-0.9750450269748039
17661,1.958,0.9999997441513546,-0.0002777488024244148,-0.0006082442326536851,0.00025414913241539474,0.0879409343745371,0.05837193343563071,9.700806269201276,0.0049424532434478976,0.0036035657523559293,-0.00906150680259964,0.49152690126200704,-0.745571942251478,-0.9746604790973562
17662,1.967,0.9999997476511556,-0.00027580017299129987,-0.0006030934897016183,0.0002547746701145873,0.049682825488743705,0.06939591379703072,9.73276022705044,0.004942414392821024,0.0036035691299945317,-0.009061609727188755,0.49149232755676125,-0.7436453671319689,-0.9707412190529193
17663,1.975,0.9999997425082134,-0.0002888577228219755,-0.0006019347768871833,0.00026309551004804197,0.08790645820712736,0.054603946765426466,9.729761817255332,0.0013615176158829228,0.0027243786881920905,-0.007279317292993013,0.5000066942074002,-0.7424478839120967,-0.9672398035074822
17664,1.983,0.9999997459918392,-0.0002869093745473633,-0.0005967836837735753,0.00026372050208347864,0.060740043532758525,0.04334479332525822,9.728482168745929,0.0049423423096776236,0.0036036733471682355,-0.009061748090704863,0.49146666030702224,-0.746594865879625,-0.967831590893656
17665,1.992,0.9999997448454773,-0.0002741672756378635,-0.0006048179536819109,0.0002633183021690336,0.07589776016450266,0.08194435722580534,9.734036738010884,0.007482336700344639,0.00039650300033934957,-0.009294594916335712,0.49219465890882363,-0.7451333689654396,-0.9673269401237211
17666,2.000,0.9999997399440103,-0.0002872076643895127,-0.0006033838816043352,0.00027120390998349093,0.07202895942004163,0.017647901646218413,9.724205778807399,0.0013613579189869888,0.0027241123034411384,-0.0072796283725182695,0.48638448825084746,-0.7358181379596919,-0.972930566428822
17667,2.008,0.9999997546902802,-0.0002794626017704599,-0.0005882980551421743,0.0002577313172989553,0.08698935343882708,0.05605976701008072,9.729761782788366,0.0063367315153459065,0.006044156451973878,-0.012613087044484494,0.4863203493519659,-0.743680154838531,-0.9656598090166708
17668,2.017,0.9999997566557527,-0.0002759584843791148,-0.0005899510155203706,0.00024998629912684683,0.11459996329368369,0.05921152589964012,9.788954194852035,0.005296339184125873,0.001957564984809285,-0.011063336751440282,0.4957305015553597,-0.7377182081599158,-0.9806739977817424
17669,2.025,0.9999997573466785,-0.0002742839886146604,-0.0005857600491831129,0.00025876638785237664,0.17821174346323146,0.06942011669960936,9.70037992670956,0.004958574702893777,0.003462012902406939,-0.007197948673339334,0.4917682943286807,-0.7358081986149598,-0.9743479402711503
17670,2.033,0.9999997622373135,-0.0002904281853181382,-0.0005687958852951177,0.00026009234387782966,0.17936062767042266,0.05637557282795674,9.78725312502881,0.0006026156045711962,0.006441295730957895,-0.008871208863109726,0.4952082793324877,-0.7460453032440787,-0.9768286176430305
17671,2.042,0.9999997703857084,-0.00030099775499175803,-0.0005437305184243673,0.00027015922231119003,0.12340072965233444,0.04670467369118265,9.697828401456148,0.0020466863434144226,0.008456676507406724,-0.0068292013294417786,0.48805732183909784,-0.7446351596110089,-0.9688249913717544
17672,2.050,0.9999997864455141,-0.00029622073271750655,-0.000514703505755865,0.0002728415384339744,0.09732358661963895,0.022208191885827632,9.783418892514705,0.005627380870568516,0.009336813058512982,-0.008611555270880509,0.48945955335108304,-0.7429742547432683,-0.9617208346400146
17673,2.058,0.9999997949874025,-0.00031365676679932,-0.0004898652533205503,0.00026772489577862445,0.030691918689578632,0.030362938965629076,9.756159748781092,0.00021506988603312564,0.008370564066980682,-0.010599679884989806,0.48661782240053225,-0.7353381507372698,-0.9717044723116499
17674,2.067,0.9999997929206826,-0.0003207616550697171,-0.00048008818932097235,0.00028422857588025497,0.02964548919615807,0.03491235176971739,9.72720471527493,0.0028053885052859986,0.0047393458424902606,-0.005238066887947305,0.4927258606508677,-0.7429030227726887,-0.9721902346126242
17675,2.075,0.9999998117142785,-0.00031628978330175086,-0.00045015071046899176,0.0002718391418890714,0.05493681916793759,0.05564526785060655,9.670581865825492,0.005594357385417546,0.009620303958162376,-0.012340799784408682,0.4894808404367341,-0.7388073940862762,-0.964133929321709
17676,2.083,0.999999809029425,-0.0003112289649259212,-0.00045988809435650133,0.0002712574163714647,0.03183959308490451,0.10480312712829709,9.708058834842571,0.005685597500749841,2.850768926449145e-05,-0.009335134037654269,0.49810303072527,-0.7399684330421307,-0.9728553540200833
17677,2.092,0.9999998113906449,-0.00030786163368517886,-0.00046152016178001136,0.00026351286529537694,0.07025295472768991,0.0902386267546788,9.705085113194752,0.0052977251773741844,0.0019578526198357317,-0.011063451029795654,0.500285062945993,-0.7387593539200713,-0.9711188106130495
17678,2.100,0.99999981075313,-0.00031184430920547094,-0.0004647136621083367,0.00025551525054290846,-0.007416371716031285,0.12503659414521015,9.682061852728006,0.0034991667379084567,0.0015881933604757629,-0.01110486091122237,0.4942246366040357,-0.7350641976982245,-0.9760303133381935
17679,2.108,0.9999998097699083,-0.00032538029590290933,-0.00046192188409103265,0.00024741863951434253,-0.015451392092253177,0.00031325820347505035,9.633493295654139,0.001328943676158912,0.003006242699838576,-0.011009991825110841,0.49539187724904904,-0.7421855267752389,-0.9699644459794715
17680,2.117,0.999999801183477,-0.00030815857050937406,-0.0004924505214360328,0.00024528307334232505,0.05521344053572053,0.04868002852248437,9.728489872313935,0.008599469641398556,-0.004964584774040276,-0.009702888560983813,0.49370436335311213,-0.7399717461570413,-0.972405867803707
17681,2.125,0.9999997402290415,-0.0003101796236071238,-0.0005851077907312571,0.00028456866378152174,0.5460857537552983,0.08807031195767784,9.814650942683373,0.004106494051348984,-0.01980679477875696,0.0003661546435740312,0.49510464589314895,-0.7417303879146468,-0.9650807764677417
17682,2.133,0.999999761798234,-0.00035377626473674667,-0.0005123157007228493,0.00029795713283627286,0.30341984854848975,0.204558282552689,9.836727864245745,-0.00595445830888154,0.01986091463680708,-0.006001119788925343,0.4930976850645403,-0.7405511268267836,-0.958986585144136
17683,2.142,0.9999997777409693,-0.00037276099923441367,-0.0004782891302743653,0.00027714032118475196,0.21910640451223884,-0.024407512959919848,9.625500344571405,-0.00019182179324220516,0.010439828467861659,-0.014194805613914114,0.4873007718006927,-0.7368410615878387,-0.966093063825972
17684,2.150,0.9999997929434129,-0.00035894824383384,-0.0004551583874077528,0.000279464009128987,-0.13813466187000215,-0.09199554678380427,9.68069601562838,0.007794646352670605,0.007920414185755715,-0.008708160340720538,0.4973364143469953,-0.7439010980390056,-0.9689823106070946
17685,2.158,0.9999998033230552,-0.0003617094173310904,-0.0004277275593757983,0.00028208027885960667,-0.06774784808546858,-0.047950366330857454,9.804652308948619,0.0038257123425438637,0.008967905148775877,-0.008654918245206556,0.49585182186858934,-0.7368360919154728,-0.9667500643522365
17686,2.167,0.9999998043419409,-0.0003491543617335981,-0.00043591788264695164,0.0002817497322641767,-0.024878176276580354,0.08893027691904293,9.676490595984905,0.007484762515966677,0.0003995200040603931,-0.009293941773833964,0.49007034877454764,-0.7392178058955738,-0.9756068339030902
17687,2.175,0.9999997939312825,-0.00034132015833756283,-0.0004613134732150496,0.0002877982308986796,0.01426859140684524,0.07009433660312632,9.702488025073869,0.006446965443232016,-0.0036873828481646803,-0.007742743260610956,0.493175198259415,-0.7402473557535421,-0.9677734468770509
17688,2.183,0.9999997965597714,-0.0003378113931339447,-0.0004629649670942782,0.00028004877727626774,0.0564706507499264,0.12026231051424661,9.709314732739806,0.005297680663991252,0.0019580884169769367,-0.011064394743721416,0.49192613731910434,-0.73343311086468,-0.9645642014903067
17689,2.192,0.9999997797797993,-0.0003373119463813124,-0.0004903875132246532,0.00029356616138370814,0.16097662692250442,0.0978750624500221,9.733647984014201,0.004665023689338007,-0.00419879935206148,-0.005919382061891729,0.48857967557656745,-0.73850527957049,-0.9726852799474983
17690,2.200,0.9999997816769124,-0.0003412904496541137,-0.0004929458101171892,0.0002777973815544706,0.1494341508799589,0.12476836347884501,9.737888412697885,0.003482775573853308,0.0017286767782668823,-0.012970797305063708,0.4927131439278626,-0.7463308521853116,-0.9707486724770211
17691,2.208,0.9999997773363907,-0.00036347652032830296,-0.00048527916303940595,0.0002787761149265184,0.13032818291896814,0.022088751775698086,9.72257492882669,-0.0008263044838635714,0.004280737817869432,-0.00905218983363103,0.49533784852823604,-0.7390531856485807,-0.9638397739135375
17692,2.217,0.9999997769492062,-0.000369023685882789,-0.00048166841157652827,0.0002791390312250062,0.12692784151647107,-0.046890297322901266,9.741758004627782,0.0031427843349099292,0.0032343217938912124,-0.009105490039680765,0.5022835264756207,-0.7418983212765508,-0.9762497518555816
17693,2.225,0.9999997704184143,-0.0003806400736991386,-0.0004867338880043214,0.00027814811835300365,0.09936974567943938,-0.05385765085283492,9.711510440267581,0.001717113069856022,0.0010760132938604965,-0.0092827632957921,0.4924665085458502,-0.7404732686263827,-0.9704669447384475
17694,2.233,0.9999997681215578,-0.0003771414149852298,-0.0004896586179458286,0.00028592940072929266,0.13074660703082508,0.013882265912421341,9.78050004192792,0.005329816962008865,0.0016764646337709362,-0.007335312633359976,0.49099967052752524,-0.7421838702177834,-0.970247336281922
17695,2.242,0.9999997689730933,-0.00036625835287996646,-0.0004912204430412845,0.00029429756253711623,0.09105694535269926,0.038168089073527665,9.725531874616125,0.007128021831570898,0.002047274402868605,-0.00729405237428205,0.49006409270217655,-0.7426406656358308,-0.9748976482863136
17696,2.250,0.9999997782421006,-0.00035838768236284206,-0.00047707378662424686,0.00029576108762413436,0.11761520335133807,0.05030749184600166,9.726824332748812,0.006366146362002718,0.005763436785796669,-0.008887565409068359,0.4885905894549547,-0.7409383468317067,-0.9739224724089116
17697,2.258,0.9999997736772047,-0.00037012870810731264,-0.00048230515620125455,0.00028815276422146624,0.09402896563724078,0.10373415844220689,9.735301827303816,0.00170107014552874,0.0012163705368766977,-0.011147981461216715,0.4948408697858443,-0.7373508668444567,-0.9628559836369853
17698,2.267,0.9999997651890431,-0.00037412471256056463,-0.00048741339611649254,0.0003034480846619362,0.06654395276007616,0.09676382331490056,9.705048387120438,0.003547791640320574,0.0011647096497673659,-0.005511994035069608,0.4899929963197367,-0.7422070620221582,-0.9668381935932148
17699,2.275,0.999999770885922,-0.0003721230360365486,-0.00048155165578129665,0.0002964128069590821,0.1048668176321889,0.08215989329663025,9.70210251549614,0.004924367456811812,0.0037459340771131737,-0.01092982916893827,0.4858576666728915,-0.7392658460617786,-0.9685638054174878
17700,2.283,0.9999997676112707,-0.00037610959479204533,-0.000485386440269995,0.000296173902536292,0.05090255329580786,0.059320241768184075,9.699517124488871,0.0035154340845791237,0.0014464163431498595,-0.009241960958522883,0.4888648118331886,-0.7399386150079346,-0.977331449924967
17701,2.292,0.9999997655559791,-0.00038947423768186335,-0.0004832535290543299,0.0002892470085657212,0.10191633818656066,0.009237440711845738,9.750262283080952,0.0013279334487576904,0.003003550774559824,-0.011012831024974749,0.4907663363778405,-0.7426638574402054,-0.9714734303990941
17702,2.300,0.9999997593369778,-0.0003918979843398183,-0.0004945318378383284,0.00028840980888920556,0.10180737784886153,0.009458020972153171,9.750263210061888,0.0038886583204603524,-0.0003409929334070258,-0.00937764362568851,0.4871580767254135,-0.740425228460178,-0.977593963615762
17703,2.308,0.9999997498313307,-0.0003946096347275563,-0.0005069478514163071,0.0002960141691958177,0.08967254526151829,0.0407185476547364,9.725534392877764,0.003904803958605001,-0.0004817489956607809,-0.007512733545141036,0.4985824888113099,-0.7368013042089105,-0.9718530103863599
17704,2.317,0.999999755929913,-0.0003942348051378126,-0.0004943466797666635,0.00029722111735347613,0.10568702176301926,0.07042004117604175,9.788980266938085,0.004566571334380921,0.005392914484177828,-0.008930010955774116,0.4888217116034959,-0.7394834761473427,-0.9724456268134496
17705,2.325,0.9999997494216176,-0.0003970352469467503,-0.0005057029616015363,0.00029628403596068637,0.07759669111113973,0.0679563144754181,9.729765405862135,0.003888780661063239,-0.0003410490464537556,-0.00937780258669357,0.4858818817836065,-0.7480364841043462,-0.9713088197346468
17706,2.333,0.9999997482571447,-0.0004132095280569804,-0.0004893923211340029,0.00030535010977236125,0.11487815186896883,0.06200067104232751,9.668907346866446,0.000612840176437721,0.006296650982616865,-0.007012582277874509,0.4880745940789877,-0.7453543121659143,-0.9707829649009692
17707,2.342,0.9999997481228777,-0.000411071797944716,-0.00048537570893327815,0.00031493583490199364,0.07695081609763718,0.06837444286742123,9.729767606660198,0.004956020096462779,0.0034649407132509545,-0.0072006041899129215,0.49048140469948237,-0.7446484120706517,-0.9668504513236753
17708,2.350,0.9999997474099745,-0.0004150532247361457,-0.0004885757414928182,0.00030692760166439276,0.10411071661312912,0.0759419958824488,9.760022177758904,0.0034993616686239777,0.001587051967910529,-0.011107595538840822,0.49617589738181117,-0.7411692293769133,-0.9758103713587071
17709,2.358,0.9999997438736105,-0.00042065575603972847,-0.00048566652476543325,0.00031532439778069593,0.07704878326081223,0.0646076736011973,9.75872794576972,0.0031578445478167064,0.003093318097068817,-0.0072422057023367355,0.4966702549665335,-0.7350608845833139,-0.9764970283528694
17710,2.367,0.9999997469562169,-0.0004171479489012932,-0.00048731633625195435,0.00030756768310328186,0.10019076009901359,0.011886697784892921,9.75027729807121,0.0052973689956593226,0.0019588259648315493,-0.011066344821364166,0.48856710498089306,-0.7443744590316062,-0.971260282741931
17711,2.375,0.9999997431914179,-0.0004214996427233512,-0.0004913556621898805,0.0003074487966804039,0.09954868945629855,0.01664220187405582,9.721316388924787,0.003515452712253477,0.0014464125972338442,-0.009242770990320271,0.49491007564726797,-0.7421805571028728,-0.970701129697873
17712,2.383,0.9999997368199435,-0.0004239203854689884,-0.0005026345901909647,0.0003066105340550187,0.08731914236823794,0.04787163818542413,9.696577285647791,0.0038893361687523677,-0.0003409944404228015,-0.009378069801447725,0.4942076420060742,-0.7389836102354567,-0.9741038131760463
17713,2.392,0.9999997530352589,-0.00040880697871556216,-0.00048630365955546845,0.00030052458527606463,0.09926070389761671,0.017445641346497665,9.721317927675562,0.00814503135595718,0.006277768710985754,-0.010713547269500627,0.4971155046656543,-0.736070555751818,-0.9716168369997985
17714,2.400,0.9999997402652406,-0.00041872098744939534,-0.0004997693196828008,0.00030720158409799117,0.07617189834365205,0.06654765028537649,9.758721792836832,0.0021076867855121745,-0.0008536520660136202,-0.007554404873050538,0.48710659609860457,-0.7438828759069969,-0.9717581423671997
17715,2.408,0.9999997458978468,-0.0004170247700672523,-0.000494133363785225,0.0003002112629326341,0.08673177504457857,0.04907675707125029,9.696576533342089,0.004923028677215681,0.0037462206930725427,-0.010931830747972174,0.49083097210964655,-0.7431024307262439,-0.9788005085733665
17716,2.417,0.9999997499804386,-0.0004060343461650437,-0.0004948652324423827,0.00030047224931976165,0.08698966255595363,0.04518729856445921,9.7255390247275,0.007111141517028563,0.002190769626475848,-0.009160359352664547,0.48540144464445123,-0.7348465676126604,-0.9722001783371312
17717,2.425,0.9999997458673215,-0.00041050916474902555,-0.0004992801654529906,0.00030077705118714655,0.0746455047179566,0.07653616299769325,9.700791380847786,0.0035153809967919053,0.0014461229033798928,-0.009243331926593237,0.49094811683705103,-0.7444208426403556,-0.9644032325683417
17718,2.433,0.999999745259848,-0.0004160640186365607,-0.0004956742160167243,0.0003011279519078477,0.05928682022501521,0.03864912394452425,9.695281221441768,0.003140999821208239,0.003233463932056403,-0.009108453400600581,0.49904063058623244,-0.7373127660229839,-0.9684342590849349
17719,2.442,0.9999997390432254,-0.00041841161757713666,-0.0005066973197067147,0.0003001716610884726,0.05966853146713571,0.03455783829573483,9.724244087514759,0.0038898053374866433,-0.0003411843753797974,-0.009378414445777673,0.48805757025556,-0.7487854546934477,-0.968853151752815
17720,2.450,0.9999997460626872,-0.0004089904839501047,-0.0004999845728204214,0.00030102619898193306,0.08637396592547622,0.046629770152782773,9.7255377034189,0.006736412234119803,0.003978516039420268,-0.009025834464065706,0.49007280919215335,-0.7443429844399547,-0.9758857457624407
17721,2.458,0.9999997409277316,-0.0004203204554473318,-0.0005051297413255913,0.00029380117338886436,0.0861596259589332,0.04697894937459153,9.72553792258365,0.0017015066585741258,0.0012135633757506077,-0.011150429803823051,0.4913190151710655,-0.7394404056535039,-0.978771353978738
17722,2.467,0.9999997356215848,-0.00041525598708664425,-0.0005154891759661913,0.00030098195224142956,0.07491036468873383,0.06943526835808979,9.75871144024491,0.00570375713798693,-0.00010863556796333453,-0.007471826649124517,0.4922783112742049,-0.7394536581131466,-0.976809735529384
17723,2.475,0.999999727217814,-0.00042573158809348845,-0.000528072482826567,0.00029232920722790186,0.11248599058618679,0.06362666020469655,9.697864882633919,0.0020760889582052827,-0.0005739199803232112,-0.011285450651287346,0.4932245107232795,-0.7365472298593292,-0.9733634861263342
17724,2.483,0.9999997318164165,-0.00041631851894264314,-0.0005219911508614339,0.00030095053455870093,0.10264978397874532,0.07301872028195223,9.817929289840823,0.006751863301230379,0.003838927114953326,-0.007161023559250304,0.4925595349741962,-0.7474819517964341,-0.981012379805398
17725,2.492,0.9999997343217905,-0.00041318623389768227,-0.0005239136753627255,0.0002935097033170771,0.12431987485892265,0.03359052087260477,9.722620678009415,0.005296824000744847,0.001958857039387588,-0.01106803433540927,0.49476310269703233,-0.7462563070998214,-0.9817170914611192
17726,2.500,0.9999997363740211,-0.0004187388659073759,-0.0005196765206298273,0.00028608733776381076,0.11238974737505994,0.06046604989266194,9.72682826785236,0.003124153453341781,0.0033731313242776582,-0.01097490123228387,0.4878903824276376,-0.738960418431082,-0.9775775638583781
17727,2.508,0.9999997334581259,-0.00041569618360409136,-0.000523065406362914,0.00029441966769842105,0.12389349918444492,0.03429497263947097,9.722623661227384,0.0053288830723040885,0.0016790285514053272,-0.0073373869188847725,0.4936549339873831,-0.7417187920124595,-0.9668025766103951
17728,2.517,0.9999997371155575,-0.0004153433356722489,-0.0005110958362579839,0.00030338057919351375,0.0850476683684908,0.04957161119960141,9.725534841866523,0.0045787342842474954,0.005253463272476663,-0.007068247886174243,0.48689876845859514,-0.7387278793284199,-0.975875643220596
17729,2.525,0.9999997336442943,-0.00040889214158485755,-0.0005278647951922553,0.00029474958164596194,0.08539661763271074,0.045640401655929745,9.754498982554729,0.006047156967047542,-0.0016155835170082091,-0.011337499245464093,0.48928407280244274,-0.7385268148174094,-0.9695051875665542
17730,2.533,0.9999997395618244,-0.0004069583932928397,-0.0005220731708144449,0.0002875773878201104,0.08480543816028065,0.05046107843449114,9.725532382481838,0.004921508443307574,0.003746000877255161,-0.010934067160895795,0.49464644566729404,-0.7402423860811761,-0.9684929017971524
17731,2.542,0.999999738185222,-0.0003961197045677422,-0.0005240829577568252,0.00030340685668058307,0.07235137771072016,0.08184067721792337,9.700765462270152,0.007142401983378959,0.0019127441016347202,-0.00543075163011333,0.4950934105346342,-0.7339263505467446,-0.96380714116025
17732,2.550,0.9999997329925937,-0.00040601211009079144,-0.0005356586181336568,0.00028677299857936354,0.09673238314058896,0.020452143962846746,9.750298016554169,0.0020608714191259893,-0.00043555430398273704,-0.013151578946142719,0.48875509767427544,-0.7419761794769516,-0.9648943010489444
17733,2.558,0.999999730070402,-0.00041158430182957527,-0.0005325376144707023,0.0002947221994558133,0.08439678816353909,0.051553776751205614,9.725530205859066,0.003155634163401838,0.003093034375160496,-0.007244875063124791,0.495376393241044,-0.7353613425416446,-0.9682091856314431
17734,2.567,0.9999997302856808,-0.00040808536557280665,-0.0005348199132386215,0.0002947245505312755,0.0959218199308399,0.025385513557119523,9.721333953101542,0.005312639941041208,0.0018191284451798578,-0.009203442826102111,0.491694956719631,-0.7339114415296465,-0.9660344211137545
17735,2.575,0.9999997299352552,-0.00041399799730379395,-0.0005310558507691131,0.00029447369831938394,0.08398549846950831,0.05225163777900299,9.725530041995087,0.0031395102117880943,0.0032326670703872505,-0.009110630005392617,0.49538956295877407,-0.7395016982793514,-0.9697020990501568
17736,2.583,0.9999997269845688,-0.00040892630466695057,-0.0005407798637676889,0.00029388297729335527,0.12242167628489802,0.037771059558225184,9.722629422288524,0.005688241814746072,3.209471910431446e-05,-0.009337897190290852,0.4914980867962082,-0.7319219172268344,-0.9713940839075746
17737,2.592,0.999999726483439,-0.0004149327448432677,-0.0005371522045432109,0.00029382201097245765,0.08321334693509364,0.057339283748284765,9.696562026368339,0.0031393197636686537,0.0032325794040060133,-0.009110886469585957,0.49904927401254384,-0.7377944098028614,-0.969414074096044
17738,2.600,0.9999997228242553,-0.00041892148581350503,-0.00054099235909903,0.00029357021157790374,0.08301994650321609,0.0576144908937492,9.696562052678427,0.003515045148897417,0.0014454847014223054,-0.009245210596487996,0.49590353629912737,-0.7372846045462432,-0.9726123894888559
17739,2.608,0.999999725650796,-0.00042640186788200457,-0.0005296493205545974,0.00029385604928356654,0.0832531437988276,0.053516778797658635,9.725529459659489,0.0027633561470441206,0.005019658283172313,-0.008976890082194757,0.49294634656294983,-0.7436536499192457,-0.9695076699228168
17740,2.617,0.9999997240169426,-0.00041384844521730305,-0.000538443539547981,0.0003012873342802881,0.07129517764666367,0.08045120886713106,9.729718330125982,0.007501899161054196,0.0002668099853969171,-0.007430929923473789,0.48570616743123723,-0.7396828841008979,-0.9790666687731294
17741,2.625,0.99999971591602,-0.00042555992662343515,-0.0005442545075629671,0.0003014194076637622,0.08347584059877783,0.049962572837504673,9.754494427437002,0.0017176112945496605,0.0010713350797300699,-0.009286894029483473,0.49394405586429935,-0.737777844228308,-0.9719005547543363
17742,2.633,0.999999708165177,-0.0004370356550363276,-0.0005496548318318388,0.0003009135479189457,0.08338488207700927,0.050108648684079646,9.754494456111798,0.0017175824810210132,0.0010713377636177703,-0.009286973036414025,0.49508322729290016,-0.7437000335279951,-0.9626527733490151
17743,2.642,0.9999997053325677,-0.0004319167175350345,-0.0005591454541669862,0.00030023172478945743,0.08283724387899746,0.054769991258207654,9.72552603415819,0.005688471565123881,3.25887289987281e-05,-0.009338254447753144,0.4855988698517306,-0.7461132220997476,-0.9669034622774466
17744,2.650,0.9999996913550034,-0.00044182364365821396,-0.0005726182377526071,0.00030690408930591096,0.094614671950082,0.028582033232568506,9.72133788960916,0.0021096286617826314,-0.000855231902342813,-0.007555489069514719,0.49198026832904884,-0.7382743970252833,-0.9707004690072659
17745,2.658,0.9999996939961966,-0.000438259528857697,-0.0005745038608966183,0.0002998022891023978,0.08331717826933493,0.05104640572781429,9.75449017312485,0.005296155369049434,0.0019590864843297175,-0.011070152204244316,0.49321605726249795,-0.7392393411424932,-0.9724052055242713
17746,2.667,0.9999996901021992,-0.0004422494043081867,-0.0005783444339857333,0.0002995474688763191,0.0944273691049726,0.029254241916277453,9.721337711412092,0.003514744576669137,0.001445397773606547,-0.009245936103488011,0.4858945108302131,-0.7431438446626274,-0.9727404429122285
17747,2.675,0.9999996822459574,-0.0004554963840165676,-0.0005772463608341066,0.0003079247759013976,0.12108754574716521,0.04115157162608031,9.722632408158443,0.0013569952781077926,0.0027186539974610527,-0.007287693733481426,0.48371682954811207,-0.7450820156843241,-0.974970206810824
17748,2.683,0.9999996852451439,-0.0004519936485949127,-0.0005788956916526454,0.00030015185083197987,0.05547863873670799,0.04454583905280953,9.724228270131123,0.0052960941283466765,0.0019592376329892404,-0.01107042520749898,0.49444954651840506,-0.7377645917686653,-0.9738492516049655
17749,2.692,0.9999996883780646,-0.0004503341520396185,-0.0005741374493209298,0.0003013455072306573,0.09383696190470049,0.030157087902808875,9.721340670164373,0.004935518890825071,0.003606947860671399,-0.009070838910144268,0.4946615643569725,-0.7409631951935367,-0.9702067498200917
17750,2.700,0.9999996844377782,-0.0004543239684134741,-0.0005779784637505639,0.0003010896393016166,0.08186921673382767,0.05701162458092902,9.725521348395613,0.003514769164083443,0.001445365065551131,-0.009246240280650748,0.4929376739111722,-0.7426837361296693,-0.9685245419257005
17751,2.708,0.9999996785552157,-0.0004492474574216847,-0.0005881991436248517,0.00030836334990939245,0.08230952502009946,0.05304501794807625,9.754488064145777,0.00570462887310312,-0.00010606049818527307,-0.007472882095790245,0.4897163281366302,-0.7383257503063988,-0.9631519607108124
17752,2.717,0.9999996752398964,-0.00044417402265680426,-0.0005979192171379967,0.0003077696376609543,0.08131100521994587,0.06220283577138691,9.69654818582474,0.005688625420611031,3.3090045427272306e-05,-0.00933882215345487,0.49515625803455543,-0.740469955511472,-0.9709315061533361
17753,2.725,0.999999685287093,-0.00044386374165937277,-0.0005845689197633689,0.00030114759204852835,0.0547540910775479,0.04657364060942893,9.724222876764767,0.004542278844726879,0.005532956755018516,-0.010803548294120943,0.4944235870140047,-0.7358313904193345,-0.9709064935856309
17754,2.733,0.999999686633048,-0.00044784097427192016,-0.0005871531553959988,0.00028534792805838023,0.119873358446175,0.043819923851542736,9.722635794149504,0.003482764737050481,0.001723304635502622,-0.012978437680083802,0.4879643538616842,-0.738603016460355,-0.9582861822768182
17755,2.742,0.999999691074896,-0.0004369182506040613,-0.0005877541047593776,0.0002854779632634976,0.06656248402305728,0.016496418909861046,9.749017563166097,0.0071090241080699265,0.002195252327912632,-0.009163887175100492,0.495912676558363,-0.7460668384909981,-0.9736485252620865
17756,2.750,0.9999996838373265,-0.0004499795074338189,-0.0005863471822416068,0.0002933269028880151,0.12000622430273906,0.040271383095910884,9.751606069509922,0.0013563616330171486,0.002717900300470334,-0.007288704190700843,0.48411880366474325,-0.7427069279340441,-0.9651843144301929
17757,2.758,0.9999996838386199,-0.00044632506358200004,-0.0005887761357412499,0.00029403955479144847,0.08072425139226634,0.05967412120999266,9.72551494760581,0.00531182361149825,0.0018202855899837275,-0.009205446406239886,0.4946380798829109,-0.7443993073934362,-0.967544560153111
17758,2.767,0.9999996790998347,-0.00045938005029276497,-0.0005867415864124115,0.00029411648709693145,0.10735062635771424,0.07166709034926007,9.72680910759157,0.0013403319348829115,0.0028567288047573656,-0.009154855326471888,0.4954261879250997,-0.7397176718074601,-0.973853889149844
17759,2.775,0.9999996812317051,-0.00046499877466554275,-0.0005823456685001685,0.00028668127015524936,0.08027274626903332,0.06013740814009664,9.7255158307546,0.00312151232227794,0.0033709310357706223,-0.010979481928441864,0.4926628962490819,-0.7344063377691666,-0.9650526176755095
17760,2.783,0.9999996710894176,-0.00046741532967408214,-0.0005942559481286914,0.0002936048952398279,0.09243027276602551,0.029594522722433222,9.750316285677872,0.003907906548472965,-0.00048051345759373765,-0.007514603013512191,0.4895239991173591,-0.7402390729662655,-0.9690263784052408
17761,2.792,0.9999996614423514,-0.0004609457578957686,-0.0006120257737411315,0.00030011438385936105,0.09202734931193318,0.034341649712251184,9.721344087646917,0.006082345647655391,-0.0018919105839364174,-0.0076067104737373905,0.49533960753465456,-0.7324598839601932,-0.9640391741087165
17762,2.800,0.9999996626325122,-0.00046492319400169904,-0.0006146127338001523,0.00028431052244771895,0.07974708792588163,0.06556704727265879,9.696539008705127,0.0034825534982918724,0.0017226944282968126,-0.012979443582124675,0.49368928850163296,-0.7399833420592288,-0.9706969892597783
17763,2.808,0.9999996552577961,-0.00047825233131956805,-0.0006129497862962596,0.00029163599949026155,0.09184843837539088,0.034940725247275276,9.721343644016027,0.0013557666882003214,0.0027175346945664345,-0.007289393089625739,0.4851746588217988,-0.7367863951918127,-0.9741685879311514
17764,2.817,0.9999996473705053,-0.00048066222019731576,-0.0006242320702392472,0.0002907868942284593,0.08095457961275475,0.052987967389457685,9.78344974353464,0.003892003131673467,-0.00034160887943189767,-0.00938090357946925,0.4963165850342097,-0.7400280691105229,-0.9640819109926773
17765,2.825,0.9999996391630046,-0.0004832787780242538,-0.0006355984562410819,0.0002900518685632939,0.09177468041318937,0.035482130601752794,9.721342379779484,0.003891970363442012,-0.00034160581119498367,-0.009380994290946802,0.49537640785377707,-0.735605477546494,-0.9682108421244466
17766,2.833,0.9999996366606329,-0.0004963304204150561,-0.0006329391667413385,0.0002823521339422704,0.07986930054548758,0.06219368101361602,9.725506219775879,0.0013235389874229587,0.00299485510817656,-0.011021901715967878,0.492943637728882,-0.734378176292426,-0.9692005976824057
17767,2.842,0.9999996288055807,-0.0005097973241536309,-0.0006313480270750946,0.0002896464366760145,0.09143007228907078,0.03581668630251579,9.721344399918555,0.0013554050837070986,0.002717435150649169,-0.007289745044712065,0.4931860829123361,-0.7421921530050601,-0.9690073263524569
17768,2.850,0.9999996206339938,-0.0005122068109039982,-0.0006426294387878382,0.0002887965649074978,0.08003024610321066,0.05819623218858397,9.754477657674327,0.003892129757850141,-0.0003414051445487113,-0.009381146996871004,0.4990166492792465,-0.7324482880580058,-0.9657157486558328
17769,2.858,0.999999608982548,-0.0005238689391229972,-0.0006482874843962615,0.0002954986024931877,0.09180295816237168,0.031940287034483594,9.750314809802527,0.0017331640383829916,0.000930661117533503,-0.007423202676119486,0.4924833862419472,-0.7346007760503559,-0.972380192956566
17770,2.867,0.9999996158247746,-0.0005219521963795434,-0.0006424931731589296,0.0002883031925865059,0.0798076263192182,0.05870687851861506,9.754476422344897,0.004917171758054442,0.003746749012630037,-0.010939484259415284,0.4848596358914144,-0.7397706816460308,-0.9661344777398897
17771,2.875,0.9999996062384364,-0.0005411772320023918,-0.000648458487845064,0.0002723082179455426,0.0914156034103006,0.03242186691632697,9.750316859650853,-0.00011157121139822658,0.0009703323981294134,-0.01306338159899503,0.501738994275783,-0.737302826678252,-0.9698753225249255
17772,2.883,0.9999996038188178,-0.000527033781481518,-0.000664042048402518,0.0002713775213745991,0.11773815457012246,0.048820035102072,9.722638065432287,0.007864244765478787,-0.0013753742875060873,-0.009431769270647882,0.49565960975118284,-0.7407024946141341,-0.9726377339906932
17773,2.892,0.9999996084151529,-0.0005253800044919773,-0.0006584488953572305,0.0002712755870533317,0.12945405032886062,0.022860893712304226,9.718478949596053,0.004932632751499946,0.003608311005757788,-0.009073756529798355,0.49122818613113006,-0.7331624709405451,-0.9684750138970738
17774,2.900,0.9999995973306205,-0.0005277960767807451,-0.000670355564026482,0.00027819654164605866,0.07939431395681854,0.06012378675394003,9.754471163986167,0.003908256474864948,-0.000479852073771325,-0.007515298433158243,0.4990042978745682,-0.7419794925918622,-0.9643155988453189
17775,2.908,0.9999995979272792,-0.0005244121765963604,-0.0006722903432460198,0.0002777820071749414,0.10564201650439077,0.07658077501554673,9.726790370197472,0.005310785691066597,0.00182168869985637,-0.009207116958250057,0.49664675587973883,-0.738252861778364,-0.9738331821928853
17776,2.917,0.9999995866355091,-0.0005268281406998385,-0.0006841969397115903,0.0002847024219904578,0.09059420129608002,0.038721704990475315,9.721341088489655,0.003908280923918954,-0.0004798636620533304,-0.007515399921192709,0.4971032263246412,-0.7468224353099209,-0.9702249696543024
17777,2.925,0.9999995978382067,-0.0005265647508658497,-0.0006707102212555374,0.0002778502966285684,0.06308552296279445,0.031634281680520196,9.6910766685987,0.004537722958046884,0.00553335653642707,-0.010807564983162949,0.5002353267128695,-0.7353795646736533,-0.9654807330666628
17778,2.933,0.999999590116495,-0.0005273735176218071,-0.0006881808778615811,0.0002608660468587331,0.09389207768252092,0.09984128706396414,9.759910611113202,0.004239146273549164,-0.0018512767760925192,-0.013247444863465793,0.49346664903933957,-0.7392343714701273,-0.9731354284433104
17779,2.942,0.9999995806353646,-0.0005316514234865134,-0.00069292310985183,0.00027556019881256954,0.0907565186415145,0.03543870034233344,9.750312518774205,0.0035456725473887066,0.001168493193233186,-0.005516249309134939,0.4936438739816652,-0.7368443747027494,-0.9655488192189463
17780,2.950,0.999999591693248,-0.0005313254935421064,-0.0006796881822546743,0.0002689433629608166,0.11728179654669363,0.04753748537948166,9.75160650378214,0.0045371322905367805,0.005533372647830644,-0.010808111783943392,0.5007970727016648,-0.73971767180746,-0.9738065099545193
17781,2.958,0.999999580629235,-0.0005414323886748851,-0.0006915578083845508,0.0002594997505642948,0.10425347950574533,0.082931788433868,9.69781100363617,0.0020799088188297567,-0.0005799960914857809,-0.01128976691942005,0.49273386111692413,-0.7326427263391951,-0.9730971639315765
17782,2.967,0.9999995741023234,-0.0005438331523820221,-0.0007022133972831179,0.00025087251542364416,0.07797784640426472,0.06709662269956895,9.725488979537413,0.003876606869046086,-0.00020305976475322392,-0.011248481610947266,0.4919840932092803,-0.7302146287503443,-0.9711340557506992
17783,2.975,0.9999995664342916,-0.0005486193191407299,-0.0007067784096679215,0.00025809368798317963,0.12838801132682454,0.02621695173533262,9.71848461656095,0.0035295622340331297,0.00130699216887567,-0.007382891465829245,0.48839382182066343,-0.7406577675628399,-0.9792937306537568
17784,2.983,0.9999995452494613,-0.0005569319751467749,-0.0007276948167917524,0.00026417399487838137,0.07797779326006282,0.0676516513045036,9.72548513488458,0.0024908365729203854,-0.0026431138553656194,-0.007690007208033767,0.49584117101939723,-0.7387974547415441,-0.9655426887648875
17785,2.992,0.9999995477489303,-0.0005536799329946159,-0.0007294616930793712,0.0002565659864888434,0.11713002076812973,0.0489576090989644,9.751601301168716,0.005294088424527829,0.001960549525839615,-0.011074611555934576,0.49296530474559275,-0.7365588257615165,-0.971656761182193
17786,3.000,0.9999995394060369,-0.0005667542864338439,-0.0007280591963466618,0.00026439950826748795,0.063347699316871,0.02568196249187319,9.749019110815702,0.00135355244695163,0.002716311682017232,-0.007291729474269203,0.4892501858956511,-0.7480745849258191,-0.9656637826932851
17787,3.008,0.9999995287128248,-0.0005583793845185024,-0.0007520718201696703,0.0002552931044645958,0.11646058060983353,0.053873995772957047,9.722626761318727,0.00643165989597001,-0.0033987877755553646,-0.011473083140570065,0.4856651476880906,-0.738005413658604,-0.9744166887028697
17788,3.017,0.9999995326937139,-0.0005655518971339013,-0.0007410332458508619,0.00025618964558050223,0.10193951505192918,0.011688773375807246,9.746165196576317,0.0027546092872767383,0.005018100187016987,-0.008984405821447465,0.500767302929766,-0.7460883737379175,-0.9704318216847548
17789,3.025,0.9999995258574639,-0.0005605787692155496,-0.0007513961351389532,0.0002635149707751455,0.08939597756834539,0.04282305361549464,9.721334979993538,0.005705238211477803,-0.00010190108099520986,-0.007474704790653363,0.4861365468571415,-0.7441220412394801,-0.9725007897781798
17790,3.033,0.9999995306438056,-0.0005586803949774664,-0.0007462238915538959,0.00026408007979316294,0.1155423494673717,0.059353966499969595,9.693651152594647,0.004930398204513788,0.0036090161908881565,-0.00907601473448402,0.49247506429576327,-0.739490102377164,-0.9714368207915354
17791,3.042,0.9999995177323405,-0.0005686534317222641,-0.000758760993592721,0.0002558322027299082,0.07777600875230392,0.06571668504445258,9.754448124808663,0.0020801396299078775,-0.0005809655573508566,-0.011290600049884632,0.4958257162368583,-0.7324615405176484,-0.9637907414028661
17792,3.050,0.9999995054595386,-0.0005710687285905572,-0.0007706645873266542,0.00026274946129684626,0.11236425678376624,-0.00483571675567354,9.684080268763328,0.003908682962036168,-0.00047926423219872295,-0.007516213008862267,0.49392506845619033,-0.7443843983763381,-0.969748150508953
17793,3.058,0.9999994958462041,-0.0005735282692211396,-0.0007816267524616609,0.00026159564588145313,0.14585444926994443,0.13244145549775352,9.733477374842366,0.003892641256494612,-0.0003413227835074023,-0.009382872055526703,0.48755778038996894,-0.7360987172285586,-0.9675506937848268
17794,3.067,0.999999514062761,-0.0005566585479076053,-0.0007726808244446808,0.0002548918338514905,0.025094112474700375,0.03460230921791943,9.809811376605092,0.008506830586065928,0.004502674243400475,-0.010860575727263937,0.492706098767906,-0.7365704216637039,-0.969950036238052
17795,3.075,0.9999995271042464,-0.0005673045562951252,-0.0007468809943320118,0.00025714899294662435,0.1152738320414263,0.056862296357744244,9.722623887132174,0.001993931106961041,0.008590437110472663,-0.00872064754968736,0.49664212729918866,-0.732885204786589,-0.9733084883342558
17796,3.083,0.9999994966785192,-0.0005542841708214497,-0.000794404939154,0.0002614049715225294,0.02050507697009037,-0.02070519290429588,9.742301722121722,0.007604701768262525,-0.009033164034261687,-0.008137131100946346,0.5053924784826478,-0.7395066679517175,-0.9688814249400433
17797,3.092,0.9999995306096539,-0.0005607449430729012,-0.0007501770780896158,0.00024815304288916627,0.08834561938754686,0.04589770486469751,9.721330555941904,0.0029978906467128057,0.012816467413512993,-0.012148419306411258,0.4955583782785174,-0.7405362178096856,-0.9611621787027407
17798,3.100,0.999999501884351,-0.0005583938734633234,-0.0007850199018739972,0.00026109593298079666,0.14163122197306383,0.06983672488116205,9.723912484982373,0.0050650429942658975,-0.005976002241641922,-0.0060467420981657975,0.49323094214844737,-0.7360539901772646,-0.9740925496591536
17799,3.108,0.9999994987403147,-0.0005715568130151585,-0.000782141679731495,0.0002531725137288788,0.07681729377529642,0.06866387023322096,9.754435421368894,0.0013204238069697918,0.002990679508724776,-0.011026566113713786,0.49584549273255296,-0.7390382766314827,-0.966032596270442
17800,3.117,0.9999995051049188,-0.0005803365668275117,-0.000764288254307631,0.0002624173240951592,0.09965475518868841,0.020187058789842387,9.717202176016325,0.0023885668984064694,0.006666131215349174,-0.006987288578952595,0.4971499614690355,-0.7360440508325325,-0.9755228451002068
17801,3.125,0.9999994954091911,-0.0005830480965987874,-0.0007752974190495008,0.0002610559179716821,0.14158749974118126,0.06623332740052304,9.752891074522916,0.003893279913498516,-0.0003414299121567305,-0.009383214264716088,0.49319219285737664,-0.7363279432163099,-0.9696999470391979
17802,3.133,0.9999994994600162,-0.0005902294090109735,-0.0007642610665604947,0.000261942711446959,0.11361754568683942,0.06329624987061107,9.693648963701426,0.0027525242804177508,0.005017464515985018,-0.00898655346882399,0.49419696193141593,-0.7404567030518294,-0.9728931246026902
17803,3.142,0.999999514291778,-0.0005827165719034125,-0.0007500355541927348,0.0002632570470630669,0.07149261587751252,0.013583032661179039,9.686941172866055,0.006345252660269723,0.005774247802919234,-0.00890390950836841,0.4902758036733496,-0.7407124339588661,-0.971220360148365
17804,3.150,0.999999504589398,-0.0005851203926951015,-0.0007613161983834821,0.0002623980387508843,0.07479626985079994,0.07444811502043397,9.725460471804123,0.003893631953030466,-0.00034148638172202547,-0.009383294318574745,0.4926999742101325,-0.7421904964476048,-0.9692557590583074
17805,3.158,0.9999995017013977,-0.0005891239450011158,-0.0007646289644863309,0.00025470076680691165,0.11339358485679622,0.06010942787382279,9.722626463294471,0.0034972344892979664,0.0015823222482007663,-0.011118068463894884,0.4953920233763797,-0.7446268768237322,-0.9699810109095072
17806,3.167,0.9999995041245863,-0.0005872399188852954,-0.0007600747538613904,0.0002630327511323626,0.08591220925880039,0.05293273126771369,9.69235809588244,0.004944807424601862,0.003472151295569929,-0.007211043111688418,0.48222371054525925,-0.7394884458197087,-0.9717713974888853
17807,3.175,0.9999994882636415,-0.0005971331872724868,-0.0007732492273758003,0.0002626595604629715,0.08678986431381258,0.044640834814383724,9.750310844850896,0.0020974465203073525,-0.00072017813520032,-0.009424865476072419,0.4970484815799079,-0.7317274789456453,-0.9640191294311935
17808,3.183,0.9999994777873301,-0.0006011465287755338,-0.0007783329905718226,0.00027793106018808014,0.08627235992989084,0.04916587567129744,9.721333192220406,0.0035448732045899266,0.0011698631003369986,-0.005517795790566167,0.4962495181102642,-0.7349525872898021,-0.9564792339450615
17809,3.192,0.9999994830011232,-0.0006067714757265587,-0.0007728017458523064,0.00026192236374570835,0.08607919304597335,0.04944164898923716,9.721333506172472,0.003100521854291618,0.0035058181867453626,-0.01285332638140099,0.48584705966189856,-0.7419596139023982,-0.9673613993091494
17810,3.200,0.9999994873562307,-0.0005867366413652945,-0.0007799637974571524,0.00026959945231882983,0.08640243213379108,0.04566310096753725,9.750309554186716,0.009298539955395344,0.0006578330163003214,-0.007392588278502633,0.49124384549193195,-0.7429162752323314,-0.9702501521611451
17811,3.208,0.9999994833750134,-0.0005996848068263536,-0.0007775848985870303,0.00026265864649289956,0.12391955040916436,0.04004659457577209,9.689528536318033,0.0013200058072693548,0.0029891515331325236,-0.011028179856685657,0.492438512393103,-0.7404948038733021,-0.9672933131568658
17812,3.217,0.9999994707616199,-0.0006020951960172368,-0.0007894859169618747,0.00026957344461818786,0.08614518513532124,0.046320247850604956,9.75030872862758,0.0039098518818222695,-0.0004788293459699622,-0.007516833806993926,0.48613206440392215,-0.7411957342961988,-0.9719926608495859
17813,3.225,0.9999994754600284,-0.0006002424301631934,-0.0007845360663372151,0.00027072468330826383,0.12418180361975478,0.03634774634893938,9.718506664418106,0.004928149465777063,0.0036098741434611205,-0.009078728937045612,0.5024973325460728,-0.7389918930227333,-0.9728099632518942
17814,3.233,0.9999994757755754,-0.0005967579081994961,-0.0007867981341424527,0.0002706977467440298,0.086286026061096,0.042824042622136065,9.77928585997834,0.00530917854347685,0.0018237248266899037,-0.009210662754447464,0.495877576794727,-0.7353514031969126,-0.9696696314695212
17815,3.242,0.9999994893413843,-0.000587744293922217,-0.000778958984014331,0.00026286216399365426,0.07364690522230728,0.07405750743939613,9.754420416466036,0.006708299842408506,0.004126301558114957,-0.010904597057464892,0.49336954931429994,-0.7361351614925762,-0.9621282462518659
17816,3.250,0.9999994840571138,-0.0005917413536456245,-0.000782802233120824,0.0002625801599741061,0.08531441500702863,0.04802554221369111,9.750307782795483,0.003513018213426114,0.0014444182461746061,-0.009252238593483328,0.4975612219722331,-0.744892547075501,-0.9667896534228418
17817,3.258,0.9999994983950017,-0.000573084733100033,-0.0007808506551683226,0.00025506055830436535,0.11141193733378778,0.0646582920742935,9.722620187925147,0.008885534385538789,0.0027196632911302377,-0.010995211440147635,0.4920087613147203,-0.7465534519432414,-0.9739304213509689
17818,3.267,0.9999995074007216,-0.000580258186484326,-0.0007685792953830384,0.00024038431317596835,0.08530514090098705,0.04473836321596768,9.779285895306758,0.002718526883087173,0.005290584703378773,-0.012723323412549281,0.4987964702345587,-0.7368244960132853,-0.9684330996987152
17819,3.275,0.99999950811112,-0.0005966056541761967,-0.0007521538215599229,0.00024920642129877064,0.12300743321332025,0.03455413041235634,9.74749695424834,0.0005883778639825812,0.006285985687920386,-0.00703208813039218,0.499023446022741,-0.7380584234971747,-0.9664862245137414
17820,3.283,0.999999500721397,-0.0005989959036011743,-0.0007628156847769726,0.00024056827639950008,0.08359298605170824,0.05362237520461622,9.721333040892727,0.003878988769065334,-0.00020461913959857723,-0.01125116318222056,0.4893145878237279,-0.7446069981342682,-0.9729643569795007
17821,3.292,0.9999995067338878,-0.0005880498562916549,-0.0007633797483556678,0.00024079183395252544,0.08350743054245298,0.054074409664735854,9.721331273442248,0.007105247130133212,0.002203802883102224,-0.00916976135910897,0.4919713910990084,-0.7338865931678163,-0.9696941501080996
17822,3.300,0.9999995116484107,-0.000586163083432161,-0.000758202146496384,0.00024134059907824628,0.0684215225541799,0.016265705826312576,9.71593381468514,0.0049274808539861124,0.0036100971384342576,-0.009079825140284329,0.48608244507266324,-0.7397690250885754,-0.9663678352472277
17823,3.308,0.9999995161161874,-0.0005845138043864565,-0.0007532325579363883,0.00024238753478073244,0.08297120024621805,0.05497361246213411,9.721330821067157,0.004927443364413217,0.0036101007254120735,-0.00907993153183354,0.4902503117764072,-0.7465915527647143,-0.9683306099051444
17824,3.317,0.9999995209705872,-0.0005826273739278038,-0.0007480550133568974,0.00024293545792508528,0.09410150904075716,0.033203582395837705,9.688251035605468,0.004927405885801659,0.0036101043163642103,-0.009080037945018623,0.4977961105500735,-0.7344013680968007,-0.9657397685987988
17825,3.325,0.9999995327351787,-0.0005822775862130236,-0.0007346134614316446,0.0002362737819782431,0.09422031961394298,0.029322736840118786,9.717233115789375,0.004529729193354765,0.005532961086417907,-0.010815983456190208,0.4978184497525054,-0.7478122277889611,-0.9682721307767501
17826,3.333,0.9999995276368194,-0.0005862728893729999,-0.0007384575562765036,0.00023598871819086707,0.08201232536878152,0.05610161833790148,9.721332512825828,0.0035133889317153157,0.0014441198936893697,-0.009253012735334534,0.49689516488090285,-0.7377612786537546,-0.9743159666196417
17827,3.342,0.9999995272564348,-0.0005902667002559021,-0.0007407772671519711,0.0002198207688285392,0.05463351124069162,0.04879591167991305,9.691056785836015,0.0034819342128475555,0.001717680279517657,-0.012987556583649378,0.48590951261802706,-0.7419115737361934,-0.9744410389911392
17828,3.350,0.9999995297816633,-0.0005867730324283392,-0.0007424181240213344,0.00021201224051415772,0.10896866314607047,0.06435670831795355,9.751606445644628,0.005293514890266571,0.0019611480493786416,-0.011078979208215694,0.49201252774401955,-0.7375171436489052,-0.9743573821223879
17829,3.358,0.9999995270256307,-0.0005820536103616613,-0.0007519598032489965,0.0002042512283519115,0.10838554666536422,0.06907853419636165,9.722623994185065,0.005675698075523721,0.00017520195458432247,-0.011210322205018903,0.4915197099747198,-0.7333701616813771,-0.9738452779283513
17830,3.367,0.9999995243002049,-0.000587658898012145,-0.0007489841180445304,0.00021231856905685852,0.05523388693262383,0.041434311624071345,9.749014234196839,0.0031465801706034744,0.0030933638713808637,-0.0072550196494431205,0.48515753270923967,-0.7385085926854006,-0.9722271793319722
17831,3.375,0.9999995283910996,-0.0005863234668715957,-0.000744249937394794,0.000213387914132679,0.10460002455748145,0.009286260024172637,9.68416399977137,0.004926720654793399,0.003610445364425074,-0.009080906879239771,0.4992743008287776,-0.7424478839120967,-0.9672462643068447
17832,3.383,0.9999995174869728,-0.0005796466775628276,-0.0007620008742551512,0.00021997776900342455,0.09308289513275396,0.031915835016550556,9.7172359066868,0.006089694954535674,-0.0018838973014739771,-0.007606957996003167,0.49564657154805025,-0.7387593539200713,-0.9711597290090117
17833,3.392,0.9999995203056137,-0.000576198894083156,-0.0007632487417436447,0.0002117421435310573,0.13225556480753559,0.013561696720177093,9.743420359676204,0.005293252407881887,0.001961027373431082,-0.01107961748133985,0.4915567733230374,-0.7409101853549658,-0.9780467628181455
17834,3.400,0.9999995273060952,-0.000574307840687967,-0.0007574528891600207,0.00020450724003213836,0.12057120925033982,0.03616690186287422,9.776492237263176,0.004910624775856435,0.003746922832991403,-0.010948747885458346,0.4969363599768462,-0.7423683691542408,-0.9789858246059442
17835,3.408,0.9999995245586806,-0.0005696625374414402,-0.0007667418569965955,0.00019614772892232712,0.11893879786717339,0.049384845407887235,9.689547861095814,0.005675902315654623,0.00017517540945155856,-0.011210815108094827,0.49228066940267917,-0.742869891623582,-0.9770770519377094
17836,3.417,0.999999531176305,-0.0005784743303699819,-0.0007488924704538125,0.00020536476649358923,0.11963739664211442,0.04120409504587716,9.74751305776742,0.0023805014089874573,0.00666494443792449,-0.0069939141130871225,0.49303225476767376,-0.7396812275434426,-0.9792461862857802
17837,3.425,0.9999995354807123,-0.0005770417511927375,-0.0007440263400071863,0.00020612128224560593,0.09198354233381031,0.03387805840397534,9.7172397323277,0.004926182110419149,0.0036105274104934744,-0.009081688943146735,0.486650330231965,-0.7387311924433306,-0.9753895458078325
17838,3.433,0.9999995348408688,-0.000582640452611157,-0.0007404350445169379,0.0002064075924306618,0.08024191092177285,0.0563911677719437,9.750306053480411,0.003130404699837695,0.0032295911935303857,-0.009123298368120666,0.498554799525957,-0.7419496745576661,-0.9687141651578531
17839,3.442,0.9999995394343184,-0.0005809578526243422,-0.0007353341751626521,0.00020712985207168544,0.06752041249346559,0.08741389551924836,9.725405812080167,0.004926095462881841,0.0036106031521069303,-0.00908187447023107,0.49507027676616616,-0.7432217028630282,-0.9611847073253549
17840,3.450,0.9999995366409157,-0.0005865659304656896,-0.0007323594098065469,0.00021519307240584832,0.09398551891013036,0.09963898266061526,9.726701113175586,0.0031459639075673666,0.0030932170868080925,-0.007256035132925309,0.4961542449778334,-0.739232714912672,-0.9733558643519234
17841,3.458,0.9999995394659866,-0.0005829701333807645,-0.0007336708001204482,0.00020722160993828572,0.05224551516900684,0.04976389165980176,9.720027390285223,0.005293514924812343,0.00196112100384756,-0.011080268978008817,0.4937365497044175,-0.7379938177564166,-0.9760544984538111
17842,3.467,0.9999995300996425,-0.0005869842338263306,-0.000738748796159073,0.00022248644850477345,0.07934255857821054,0.057771414740250375,9.750305332806274,0.003544574689809895,0.0011711707622530643,-0.005519416926652832,0.4932309859866466,-0.7367863951918125,-0.9740975191381643
17843,3.475,0.9999995288159024,-0.0005915068680299937,-0.0007414918230549524,0.00020658527371731145,0.09069441780642029,0.03588169109194473,9.717244657055415,0.0034821992857794397,0.0017160456130098697,-0.012989543476000308,0.49582197903302516,-0.7419861188216836,-0.9633670936174542
17844,3.483,0.9999995325992256,-0.000580553467135494,-0.0007427746751663251,0.0002145804844416983,0.1445023391865214,0.0558730306537168,9.748820079660545,0.007120190458284399,0.0020701919404696113,-0.007303998421367357,0.5005185139975422,-0.7402324467364441,-0.9699059684399058
17845,3.492,0.9999995213796123,-0.0005828251047388451,-0.0007541303767981905,0.00022100411393015235,0.1301462936391725,0.013748272648914463,9.772431269356519,0.003912269369112965,-0.0004783891579517956,-0.007517725645440315,0.4880870477727975,-0.7375320526660033,-0.9721947101625081
17846,3.500,0.9999995217075307,-0.0005793421127173905,-0.0007563871449741865,0.00022096586520922197,0.14388908463591984,0.06096141952358503,9.71983372632971,0.005308850966462924,0.001824936131267216,-0.009213300044791465,0.4893164929574772,-0.7404550464943741,-0.9731803221047155
17847,3.508,0.9999995313829838,-0.0005703056865796054,-0.0007500193628653555,0.00022238748279414773,0.1293664232377111,0.01887774595318615,9.743450299291213,0.006720925232625767,0.0039922161293114095,-0.009041390884832542,0.48713223412287754,-0.740445107149642,-0.9746644575404558
17848,3.517,0.9999995374308205,-0.0005775031380444177,-0.000738378812572615,0.00021546461450969618,0.12850829339345374,0.023516197559051728,9.714470687783681,0.0027306234967287746,0.005150737073069646,-0.01086171821517046,0.4915741332393256,-0.7430941479389672,-0.9800146753053818
17849,3.525,0.9999995335204502,-0.0005653262043215614,-0.0007482369701779771,0.0002313149396765012,0.09007038750490312,0.034213022504117174,9.746229072756917,0.007519203618244981,0.00014902737222211685,-0.005567107911059883,0.49119201415952957,-0.7405146825627662,-0.9643745750804971
17850,3.533,0.9999995494119046,-0.0005666516674071053,-0.0007275700367883408,0.00022521926652558906,0.08976482207252996,0.03469268417439571,9.746230196684216,0.004142298564517118,0.007317906987294819,-0.01069021054512438,0.4907506039533734,-0.7316893781241725,-0.969690009670005
