packet_counter,timestamp_s,q_w,q_x,q_y,q_z,acc_x,acc_y,acc_z,gyr_x,gyr_y,gyr_z,mag_x,mag_y,mag_z
62990,0.000,-0.7371987290538079,-0.059599164476889795,0.49692550641269956,-0.4539284244807646,9.072459059772035,-1.6145919005803677,3.1481374174673875,-0.017500796226474997,-0.006508089506489253,-0.016453417652182625,-0.15930002725019288,0.1320691859423112,-0.8633647989108006
62992,0.017,-0.7329011528735455,-0.07067741639659623,0.5020129868001819,-0.45369986115502686,9.062150444347544,-1.6585139449379596,3.0862023040856843,0.03134576574353252,-0.02250037891202145,-0.036713619239920815,-0.1615080741403449,0.13645195574627678,-0.8609120038953316
62995,0.042,-0.7327482791105975,-0.07157470542273103,0.5023369925672644,-0.453447424628902,9.164778834022346,-1.7683146152444287,3.120931840969073,0.014032704022440078,-0.017768600865013,-0.03803528742199863,-0.15343866939103712,0.13695428444516036,-0.8638039441535813
62996,0.050,-0.7324441351580011,-0.07245511887905688,0.5027523394529854,-0.45333864802752016,9.03454174028055,-1.8848262770974393,3.1624797596178005,0.00029958723855615625,-0.011190347797732682,-0.03316878587726916,-0.1622585674226912,0.130328601829183,-0.8567941909118595
62998,0.067,-0.7324723188016817,-0.07255202389508418,0.5028736703486671,-0.4531429991603916,9.02122865265086,-1.9513925898952365,3.1451703102207236,-0.0036506173122961127,-0.018905934313184623,-0.031249587483480203,-0.16225960759190733,0.12886260384278253,-0.8565570819103281
63013,0.192,-0.7315287977439231,-0.0735737001482386,0.5042346222425982,-0.4529900379144032,9.00263339740413,-1.8150165517885473,3.268811748924038,0.0013919789651333518,-0.02075785385055036,-0.0053425815074225735,-0.15932374836576582,0.1396116942912336,-0.8579575152289922
63014,0.200,-0.72974249977188,-0.0778054065577365,0.5062118041015801,-0.4529589519209183,8.958553876956039,-1.7883489252656095,3.254483791351274,0.026028912394090137,-0.03666404229656388,0.008751552486641261,-0.16374590335309283,0.13103642241180086,-0.851670258904719
63016,0.217,-0.7294468141403128,-0.07803779445331363,0.5063687154669912,-0.45321978329914103,9.231928944328288,-1.5800571901262515,3.379329811630338,0.03704241138466401,-0.0446319518162481,0.018498377441486406,-0.17668644681183465,0.13787111017810538,-0.8514500965730272
63035,0.375,-0.7282032250475748,-0.08464510410928115,0.505235461835803,-0.45529374856701343,9.150616120567843,-1.4795368661658386,3.08051843585244,0.08279975990233199,-0.026100473565632838,-0.022115307826342887,-0.17225742918632136,0.1257016942089614,-0.8593017072955821
63038,0.400,-0.7256523438535559,-0.09016467028013236,0.5073197718190605,-0.455988659085477,9.103486336667816,-1.8223227248408886,3.0661577590158617,0.07644216897493168,-0.016076729848261032,0.04138692241465003,-0.1593405092329467,0.12177089628271473,-0.8541368364197859
63042,0.433,-0.724818781991378,-0.09160626236898099,0.5076017326743367,-0.45671271818653414,9.113564987511054,-1.8146794737110825,3.051941281148256,0.06294402409057939,-0.029494534659144055,0.018315904174880618,-0.17225726992756454,0.1181334219050245,-0.8593380107010522
63043,0.442,-0.7242650932928659,-0.09281768962340697,0.5081537708092438,-0.45673263113422935,9.093152471497225,-1.602451731342055,3.0589274998667,0.03787172460217748,-0.052201268406923775,-0.0031569442729085955,-0.16103880319044767,0.12349157188514989,-0.8565774905883702
63047,0.475,-0.7241262592863107,-0.09314059128783347,0.5086138715380638,-0.4563747588831243,9.092375439587903,-1.5257521855237868,3.0375753707724438,-0.0024246544621175695,-0.038023622503563226,-0.026621346700206026,-0.17372655822736505,0.1264294233022723,-0.8583280782292484
63048,0.483,-0.7235945312508161,-0.09442152782410822,0.5093099928031477,-0.4561785403305714,9.214058963330706,-1.6890830889443624,3.161707787902429,-0.025206879856308945,-0.02772445477916109,-0.029004471149575564,-0.16981610807664008,0.12863134800403372,-0.8592769443063009
63053,0.525,-0.72339722947332,-0.09411200793825772,0.5098142657516963,-0.4559920972870179,9.19564385487371,-1.8285509962925572,3.0973669206458365,-0.019069715700996685,-0.0192329397038817,9.384092443568327e-05,-0.1737555418375697,0.12957159551426467,-0.8517211966086332
63071,0.675,-0.7222486494371892,-0.0924178966922228,0.5140848388416901,-0.4533570328452571,9.123120472182265,-1.4895245037200917,3.1561181466824215,-0.06335090669361709,-0.024678383624389826,-0.0024456099425569705,-0.17030782879082784,0.13961403646896217,-0.8584939814247967
63076,0.717,-0.7188041721506528,-0.09685638309249472,0.5186073768035709,-0.4527535663890163,8.856716498588199,-0.45686359199616067,3.117707824873145,-0.054383200957653144,-0.12886877269114283,0.03096725272794039,-0.18157143137597126,0.14153083524421725,-0.8509656795911404
63119,1.075,-0.7154692217934386,-0.10665789250498901,0.5153586940617745,-0.45949244072958145,9.203516641326571,-1.7962671734399727,2.911894502463141,0.07148372342194358,-0.013879254129947187,-0.00038872502942989616,-0.1790920192833308,0.11569321483132854,-0.859623845106885
63121,1.092,-0.7115570776564476,-0.11623444744298744,0.520015623775298,-0.4579954470234694,9.131153767076242,-1.4202428612381037,2.9608034448104403,-0.12874288695049912,0.03767242691611616,-0.03310451567082514,-0.1884048014954908,0.12444353028402379,-0.8515659141198282
63130,1.167,-0.7109478368168133,-0.11271258708753537,0.5242454997510627,-0.4549897823339411,9.241646452290222,-0.547733951502592,3.329223505925076,-0.15834452347530445,-0.04630070305582791,0.009660321644745543,-0.18130260373866847,0.1388722543092797,-0.8565926061823258
63134,1.200,-0.7111118282921363,-0.11439094355220154,0.5252522626821051,-0.45314979890051954,8.53025178545498,-2.3564950084625376,2.4179181420961244,-0.07215571368803539,0.01578291914668255,-0.09290514665341253,-0.18207551082365053,0.12906224028219532,-0.8473655145535589
63158,1.400,-0.7059244912202273,-0.12757777632185643,0.5192057237217751,-0.464564247589912,9.237915479017643,-2.0629664210759917,2.7886927129889263,0.1886816315832613,-0.02525933271038338,0.023121265326726537,-0.18567164814725703,0.10032541438470596,-0.8624120302905455
63200,1.750,-0.7024820538641027,-0.13574802495122124,0.5220797342414129,-0.4642458279997034,9.196420186531137,-1.333834337166069,2.9798636017322186,0.017670356040333273,-0.017813799368701796,-0.012130408210890597,-0.18838184826803364,0.1024957196871314,-0.8567981559126833
63218,1.900,-0.6971206928227545,-0.148240934294243,0.524816373479664,-0.46541931541948983,9.127685782148394,-2.0725109854398687,2.7653518754840736,0.06569314656589773,-0.03143320921095993,-0.005182440248629673,-0.19203083416403674,0.09127943320572564,-0.8597977161745632
63224,1.950,-0.7346268129015668,-0.10413858042830712,0.5270448759675751,-0.41436976307253254,9.119429395808531,-1.8010074287641558,2.8376169411705034,0.04430545546026167,-0.08281419803094546,0.001675529087345123,-0.20278684121565016,0.09126420905048976,-0.8566710793579603
63233,2.025,-0.7388958405608329,-0.09366203230985601,0.5333830655051388,-0.40095244847466477,8.850655179121404,-0.5044868260361421,2.753263713810778,-0.13015148936857673,-0.1360133888909441,0.003806269666001479,-0.20134795686133505,0.10271058028178003,-0.8507503614655274
63248,2.150,-0.7439968965218436,-0.09032472888114831,0.5358763012540542,-0.388775836533968,9.641975422481083,-1.7008450512368576,2.656861051353643,-0.0754802063638114,-0.008491102989208335,-0.0972746372884885,-0.20401312901904936,0.10273283097020167,-0.8554007164044916
63268,2.317,-0.741899531362526,-0.09592680091536468,0.5366456219328848,-0.39037752329056474,9.18940381235539,-1.9656100315804481,2.7293382232839116,0.094582223968945,-0.038814311312425215,0.01858259590763165,-0.2084179683022363,0.08563147294363666,-0.8530606152697723
63396,3.383,-0.7615367968462917,-0.028702177807493418,0.5471459967130441,-0.3462212447541112,9.236671590908689,-1.682223252233489,2.6979995231454237,-0.14173025112750995,0.04695118395421479,-0.006888601436453658,-0.16945743231240568,0.2307857334404586,-0.8297320001963813
63441,3.758,-0.75888337541869,-0.04628610296543849,0.5551309394986862,-0.33731774219082317,9.230948520880352,-1.9737397400717014,2.536239933897388,0.007150793552633398,0.0012743554586292787,-0.002710864417926246,-0.1772336591299617,0.24107933874459792,-0.8380176930049918
63452,3.850,-0.7630499597771538,-0.04815464577174401,0.5510161986787533,-0.3343905467687426,9.147220088612404,-1.9016890240474282,2.4784460059227604,0.01630900024461262,0.1765221755319329,-0.011363716759287748,-0.15624305045331274,0.23765555387269202,-0.8367213042558705
63456,3.883,-0.7648157416937926,-0.04833422253094674,0.549409404599817,-0.33297145572402687,9.148675305750563,-2.025452289409272,2.283571090891346,0.031169245941572915,0.15056652805782852,-0.03606974494484929,-0.15280914729961864,0.242311738714521,-0.8403460917067602
63468,3.983,-0.7724093560860278,-0.04388756551713126,0.542313327195424,-0.3276490857151535,9.129836881537228,-1.8677537866929312,2.1740610882273352,-0.06589614374363637,0.21208678693135452,-0.08291297655105609,-0.13474701905439251,0.2337622307901028,-0.8393312831240152
63470,4.000,-0.7736524114666571,-0.04422338663838743,0.5420425597938924,-0.3251093687947837,9.382637570124968,-2.461881574294053,2.138925323104589,-0.12024149804806482,0.16841263266467757,-0.16742606242534214,-0.13155733123721047,0.24208048287577225,-0.8429395754167808
63471,4.008,-0.774490628564772,-0.043955945706597305,0.5416481364349689,-0.3238046284396014,9.1652781929824,-2.2661529396770854,2.184728755666953,-0.0737689334663365,0.16608335721528683,-0.18178804552685596,-0.12912671492506633,0.2447542879659456,-0.8404746288340325
63472,4.017,-0.7750795157682479,-0.04399925502278058,0.5412054124738307,-0.3231292486032937,9.060128595013307,-2.0591226479656832,2.205656877995115,-0.04656626517603765,0.1444809671591963,-0.18893813793792966,-0.1235092898465638,0.23987387381855363,-0.8409616881864588
63483,4.108,-0.7797787725427153,-0.04795173128150989,0.5377880054136855,-0.3169065455178417,9.006057273741574,-1.7623183512681921,1.8512584949075805,0.027297255223947707,0.07436795894554664,-0.18678084675948356,-0.12886524553296533,0.23549578837004526,-0.8444242262505608
63486,4.133,-0.7808541841903661,-0.0500642600071671,0.5370285555699894,-0.31521523345920877,9.584396440748492,-2.00876405809039,1.9910077729207147,0.07234730474593287,0.09008081599552838,-0.15096238370715426,-0.12597832835254652,0.23081032630660883,-0.834668205970872
63529,4.492,-0.741816622392234,-0.09282315031944681,0.5664637918532348,-0.3467141964595713,9.463995455659495,-1.8592344274170145,3.0264107508872793,0.24706483894437392,-0.3136513742047563,0.08155146240023484,-0.2194606505641275,0.1729730856312159,-0.840238655929643
63543,4.608,-0.7437087656105783,-0.0951448434292092,0.5733361591056576,-0.3303488752588587,8.605186589565692,-1.4084409333235735,2.8498248502533814,-0.18331283792470884,-0.05251992584111985,-0.18100101174737365,-0.219200760766064,0.1878830587557981,-0.8438281811970795
63595,5.042,-0.7802028060227417,0.012640961040375626,0.5673630228196113,-0.263102618601962,9.253956302826982,-1.3078280059709404,2.0111556408993767,-0.5506806068469557,0.25305859627154015,-0.003754736713010846,-0.14275120610846923,0.3888277702888211,-0.7956529077483935
63813,6.858,-0.763301586324246,-0.08632340804381018,0.547488894798165,-0.33192599719105426,9.006186233234038,-2.12415093536915,3.3622634655690056,0.13798126491245852,-0.02231596964110438,-0.0004550304998000869,-0.1619738574100595,0.1872583854825453,-0.8660415420433671
63815,6.875,-0.7607697916875829,-0.09890502388308257,0.553040405533523,-0.32495142737590094,8.593326694061641,-2.0105300715117655,3.9916407118848203,0.040414697747999835,0.09632151331005719,0.00017675823557360905,-0.1651722878460693,0.1872314504386665,-0.8604403493754936
63818,6.900,-0.7621780768247243,-0.09750037369270405,0.5520961570641982,-0.32367899173794373,8.475458769880728,-1.8159263623783923,4.333695837553396,-0.10927871634970646,0.1460015643022706,-0.05518877450590918,-0.16471947737674913,0.1930521120962894,-0.8523536310870605
63822,6.933,-0.7646267230114501,-0.09443301719968657,0.5512777038979092,-0.32018943284309714,8.221413044619538,-1.8671594533938494,4.562273585615708,-0.23838502213070265,0.15851367697563704,-0.10578664747162564,-0.16296909004160154,0.2096991560674069,-0.8617877839869983
63823,6.942,-0.7652694454139907,-0.09353028805089454,0.551220111249272,-0.3190159088309243,8.307484720361515,-1.9904098749273074,4.820539374527804,-0.2773303544756309,0.15887424473310816,-0.09847116760870978,-0.16227080315924544,0.20282582236858063,-0.8540050261948404
63824,6.950,-0.7658111530323005,-0.09263324291631024,0.5511419892266817,-0.31811140801518334,8.2897771258866,-2.25394814463704,5.005649763246201,-0.28554136488572207,0.13097765564442515,-0.09668528622976516,-0.15253753036554685,0.20889413510905247,-0.8466088450092305
63825,6.958,-0.7663362609112052,-0.09172873995702767,0.5512305275274593,-0.3169534334887837,8.384544644641963,-2.3909044518429576,4.690407067513949,-0.2920294116247608,0.09904766856584071,-0.10356672478349271,-0.15811184856066263,0.20112622636570282,-0.8559481003760377
63826,6.967,-0.7668150005279744,-0.09088692805094044,0.5512515554579712,-0.31600006943023534,8.63098786673566,-2.5145415917009255,4.420579244646851,-0.288079076555513,0.09905901984786879,-0.10576858446162082,-0.14441890101465749,0.21140343642574194,-0.8607216481336027
63827,6.975,-0.767362476883965,-0.09002831126486863,0.551265254345651,-0.31489101542045767,8.983121314900746,-2.579072196771999,4.184647069422042,-0.28837521041294084,0.11361993806978307,-0.10982285066491268,-0.15028692629158794,0.2179857887537404,-0.8587626494411812
63836,7.050,-0.7730838647577769,-0.08170369077254516,0.548453357521518,-0.30800123309606664,9.376072979035172,-2.072192131076068,3.7225459922057644,-0.25663161776592547,0.19168296540723678,-0.07982519836173688,-0.1420345120935487,0.22232757044745552,-0.8477190598270266
63837,7.058,-0.773531815985739,-0.08120439896550961,0.5484357638632132,-0.30703841479891336,8.918629140177782,-1.508603170258542,3.7212022483386664,-0.2228327485375068,0.142173197817541,-0.05901591785961755,-0.1419628582771936,0.22728878972648398,-0.8640527145712315
63846,7.133,-0.7751923519133267,-0.07711195464428265,0.5493684580051731,-0.3022000352995371,8.675203984367926,-1.5820748005774923,3.1598940858922937,-0.16119215271150467,0.024851187363222803,-0.057561898819060084,-0.13614759937459178,0.23432077175447263,-0.8539834950300795
64147,9.642,-0.7984927112271558,-0.014458707575421798,0.5399492321484868,-0.26581038842493415,8.973757314648505,-1.9867830201883867,3.2590677274583917,-0.04851606144238698,0.026134642632821215,-0.007472318738277548,-0.07630015099376934,0.3669045525580789,-0.8057206807693028
64158,9.733,-0.8034622880046055,-0.03161706541009386,0.530606265529542,-0.26815238934242447,8.229532469513188,-1.1431907692642056,3.038337659221462,0.2902747309549565,0.31155588049668115,-0.046825501881066586,-0.06593870463520796,0.3413871907376255,-0.8302122083833391
64219,10.242,-0.801576773711611,-0.06354059869833151,0.43375356244095464,-0.40656501968679437,9.640704803891193,-1.7279374186824177,2.5675444473881956,0.501953670226139,0.28682172906805686,0.3534753609384231,0.11886894145459831,0.1248492783635527,-0.8839081121899525
64245,10.458,-0.8163063075562406,-0.03615552143004245,0.42759750880537833,-0.3866486272799282,8.763989832638305,-3.1575851412948026,4.551693373061086,-0.2675821927985525,0.21178717184213552,-0.09870090388310149,0.14026405015232798,0.18359046279438337,-0.8635125256750888
64255,10.542,-0.8079889296682145,-0.077871958923092,0.43497594307421705,-0.3897252577057188,10.072731691718294,-3.0370407324658917,6.3352304972344164,0.7905337491475571,-0.5959491467766598,-0.28615134531225356,0.09734839536509308,0.12310049662837443,-0.8757099523630669
64259,10.575,-0.8044417993493915,-0.08338776463334721,0.42773177018676595,-0.40368973846490414,16.70329468238177,-6.624696208472258,12.102705388431875,0.8281164847453981,0.21570856545446984,0.577069008468214,0.10274988247772354,0.10140502146978815,-0.8826264092201809
64287,10.808,-0.8280887801892024,-0.04212705325485126,0.3988136076979551,-0.39171672139923125,4.511113307839724,0.11527873333683185,3.2464533872566848,-0.2395506917584211,0.41874435260235665,-0.04061717201391508,0.18980980950700085,0.15110373798823137,-0.8600329682757738
64391,11.675,-0.8551616365073981,-0.06509613986348448,0.286261881331152,-0.42721798103264813,8.822785048418535,-1.99744357933503,5.241097675937038,0.18091879632553118,0.2227377801205986,0.0030915631793611838,0.323238411283022,0.01914049743490315,-0.8332246086160262
64420,11.917,-0.8752746522488306,0.0535729526152051,0.3235159725336679,-0.3554738209691012,8.099661080376057,-3.2955550375852134,5.911771552603525,-1.1666858912720535,0.21217357737232914,-0.28993253059715973,0.3769538456751213,0.28472841152049855,-0.7228259524166682
64427,11.975,-0.8782958391419018,0.03813019703218517,0.33086636692875243,-0.3430305442022299,14.664799684961245,-7.704152483318456,-0.6814436713123021,0.22573431998525606,-0.29884019186682065,-0.6081117126243382,0.3655018118878578,0.2859736934679289,-0.7279972791111394
64479,12.408,-0.8708293236367095,0.08386530189352645,0.36895666739527067,-0.3138373429299235,6.29733082251679,-1.8062868936732532,6.7386678676869805,-0.2874138618079809,-0.0892188474254731,-0.048476338106773306,0.35587190115000034,0.4067288451619014,-0.7589550822680449
64482,12.433,-0.8650124945124777,0.06957745816027514,0.38488042387439547,-0.3142919358996058,24.1515892211786,-17.931332846673058,-5.774725927317701,0.4803886045992689,-1.3773075457720332,-0.3433565314848322,0.3144490578389554,0.3907035809538258,-0.7775246044105759
64483,12.442,-0.8642769785785342,0.05503924711491301,0.385884129678747,-0.31794563063243914,47.78336526551528,-30.427561196266346,-15.800895414212343,3.2545890483552222,-1.3904572459083897,-0.5624668918403088,0.30744761566841555,0.3724787342217172,-0.7954653834976019
64506,12.633,-0.7974586142666856,-0.1472781848145743,0.3567578927471668,-0.46378087581548916,4.518069199538163,1.9322305613106172,7.402739310864883,2.506742457284127,-0.7692929494007047,0.7336400096675663,0.18610666277386492,-0.08305191417766156,-0.9063394002754266
64511,12.675,-0.7972460836680102,-0.15258273818602588,0.3503231613282191,-0.4673230924325026,16.590849988913494,7.754139048894971,-0.22414059166536754,0.3961763488508197,0.2164991519992387,-0.03673090325862479,0.18751479655967743,-0.08628777349879765,-0.8934090184926602
64512,12.683,-0.7985417305864245,-0.14110973946430164,0.3626484295746388,-0.45924422965063255,55.16179967411128,23.707729147741748,-8.024442996487604,-4.31933509501764,-1.1870836013313495,-0.2833635319659888,0.1763116292554267,-0.05525182252381027,-0.8996570800501605
64513,12.692,-0.8050585892237176,-0.12223067166807501,0.3695428098440425,-0.4476365071274444,37.982677450258265,12.244630641051668,-10.969422192946844,-5.609002889917373,0.9259127867619547,-1.0526927080868218,0.17949202475420112,-0.012519507056955132,-0.9011471666650663
64514,12.700,-0.8120973384186196,-0.10019060905665952,0.3790670104743612,-0.43216658403939534,23.96957860224134,10.263998572983914,-13.101024099880632,-6.871090084162098,0.7213959608639195,-1.4971305589061246,0.1865824851002566,0.050725069330863626,-0.9034982885373386
64525,12.792,-0.8487117972812803,0.021180846804029402,0.4130547661340721,-0.3295837026586267,7.05461356594321,-12.561946071186021,16.84126024657639,-3.414792174866898,0.6157399336085065,-1.0842609810539166,0.21821265246419494,0.3362321904635058,-0.8231308990357896
64527,12.808,-0.8492606886548353,0.02421927406997937,0.4224107608961586,-0.31581459521080846,-2.804476827259222,-2.058662324553088,-4.614050280217761,-1.3948927566479457,-0.6859690448336973,-1.2880306777611346,0.20718188742134427,0.3662131272195612,-0.813025497601739
64532,12.850,-0.8442116687416822,0.032732400239051114,0.4422319999829393,-0.30110813095309336,3.5524373273256695,-7.887115609619275,-7.88168264193592,-0.9504134052466127,-0.7627081350206735,-0.3714902657051971,0.16733858864331635,0.393015588008831,-0.8020851569939609
64536,12.883,-0.8511343980569333,0.05558203717716532,0.426561524712212,-0.3008756208513594,-8.233673516619845,-4.2879103410938795,7.846342682226991,-0.8670173221875199,1.4111026241361049,0.49190774461971254,0.21484549280736967,0.4146349423912381,-0.7790674865134843
64538,12.900,-0.8505002235025412,0.07111417136837134,0.4275801383339584,-0.2979385335182927,0.9300798686009543,1.9855609710339028,5.045849763788873,-1.7811256803047073,0.4745799132187596,0.5124811163360173,0.21919772497498477,0.4377823624698533,-0.7694156728201003
64540,12.917,-0.8478762694377292,0.06818527037778968,0.43111082632556746,-0.3009984319772339,10.544727485159118,-4.466981671611046,-5.647666586993026,0.3082540679327633,-0.612235203132439,0.22232629416616204,0.21362767534169785,0.43075155153072886,-0.7797279568225454
64555,13.042,-0.8017392646096574,-0.1307031977030206,0.4040254176686966,-0.4205880259482028,15.020849620953413,-7.14117651666451,10.345804344325458,3.644342887254796,-1.047309959531081,0.48932132693751257,0.10085288164181529,0.030908918103874906,-0.8954243275142962
64560,13.083,-0.7809924834704248,-0.16056462721854892,0.4243601588505893,-0.429171523786434,-3.0843307063222807,5.124984599029916,-2.9248548640743577,1.0275650775960536,-1.6888238995362532,0.2751581467708753,0.03545247098313603,-0.007146132921593905,-0.9022415673219316
64582,13.267,-0.8368369801154041,-0.03042211610341764,0.43579956382859814,-0.3299349992497383,10.720173275354448,1.8070541232174244,7.918401065573693,-1.7263390075114833,0.5981144525760252,-0.48949135304137226,0.1408326489118248,0.28302185740833447,-0.8261670574655092
64583,13.275,-0.8366356048216128,-0.025460954853188483,0.44240748568354304,-0.3219754977228917,21.09706652588867,-0.16524236903022868,-1.458869369220826,-2.47318497148325,-0.6828856222016711,-0.9840539792834068,0.12613236415097673,0.31055321837977945,-0.81438048362487
64585,13.292,-0.8390054678096519,-0.018299096498356947,0.4500865827478993,-0.3052163758437107,5.725148034174906,-9.080489239420592,-2.0357501073379716,-1.9136147330660584,-0.4289213673435571,-1.3665690940243025,0.11459861120345546,0.3270901799976531,-0.8009237369307274
64586,13.300,-0.8402861716816439,-0.016442973391194368,0.4531651707349153,-0.2971365112864088,3.0302678150916003,-2.5923132990462467,-7.302618988501527,-1.4974613173736981,-0.34488954405977584,-1.500743608815589,0.10827845600987336,0.3464075157923511,-0.8072065900965636
64592,13.350,-0.8441225304588315,-0.007480114021573798,0.4583413939828157,-0.27807259488826386,2.3969797830410116,-10.419945864992282,-7.83769514158452,-0.7080076777422682,-0.015666225006090946,-0.5238246554319295,0.10284682182072011,0.37563847276667406,-0.7934180367550037
64596,13.383,-0.8503455183151784,0.01912486031600301,0.44858339198034064,-0.2744443106325882,-8.969816343130274,0.3027209034599483,2.9600093370205913,-1.2922669884209088,1.1363757347579835,0.4342117122416901,0.14642465795435036,0.4145670192371089,-0.7652075110490028
64598,13.400,-0.8519143132086846,0.036838940127435105,0.44715712525304124,-0.2700655490355972,4.229422784584614,7.937141085443298,10.644507752398328,-1.998278442437993,0.8548187946623323,0.45863283962557966,0.15465644072018955,0.43231413013648395,-0.7494609382920592
64600,13.417,-0.8486590587191934,0.03255735761392854,0.45547667379576356,-0.2669434774385757,30.783710711713244,-5.727555595229613,-1.7050490160580543,-0.017002356345581122,-1.1397197258552274,-0.47924511636291867,0.150799442633841,0.4348093783868019,-0.7606965950960005
64603,13.442,-0.8363333533604413,-0.02133155244895157,0.45546156333418325,-0.3043784671296236,37.26798359203562,-29.584699938848342,-18.579504376182832,4.999226896019865,-1.6854589846719623,0.8221186441630053,0.11662550293862116,0.3325420170869222,-0.8177347524074479
64605,13.458,-0.824069592138005,-0.07432776357411296,0.44537473744482287,-0.3420906811380983,4.822602282743558,-2.1326032444526053,-5.3013387601487025,7.786132308092464,-1.4659688132221698,1.2720606439654414,0.10996117542005149,0.22213261836349996,-0.8568686425239119
64607,13.475,-0.8163856647220071,-0.10322117422489864,0.4346933759144778,-0.3659255451100861,1.683177803512418,19.60268787783062,36.32891881389008,4.642375654502752,-0.30679434137416395,1.001974843854271,0.10856845952699258,0.15433959730936747,-0.8733135689594415
64614,13.533,-0.7952028547747275,-0.13152860785696868,0.44419304856306724,-0.391209893384076,9.49186264168037,-2.931096048522898,15.638916743842191,1.131410536068174,-0.8424642748413959,0.576500457795304,0.06737458863076523,0.09557264892352225,-0.8884249266688321
64615,13.542,-0.7908848469848334,-0.13693305098847788,0.445160563708096,-0.3969667125539043,0.49081786469136995,9.201562933622409,4.502681022051106,1.6636605375198994,-0.8536167986532418,0.9096088868807489,0.059606357093438145,0.08219308367287685,-0.8985331622739804
64616,13.550,-0.7868276662465864,-0.14068659778883053,0.4473660324619575,-0.4012145782879797,-8.467765624493701,11.52001575538666,0.23401367432777442,1.0984934776036372,-1.068683958860011,0.858164249175297,0.05152212796876268,0.07361781179344412,-0.8922619710369045
64618,13.567,-0.7779253966748723,-0.14872737364368607,0.4542019879215415,-0.4079372497154606,-9.04806608630898,6.873014760036802,-0.8360503351276172,0.9448633207803507,-1.3800716177186023,0.7379394431333064,0.034176847974418986,0.05846838520806306,-0.8897251291224095
64619,13.575,-0.7738208450422833,-0.15379054020726168,0.45624142948614005,-0.411574449572916,1.8716250505556293,-0.9127557608372024,6.2411771066124455,1.2870800236356623,-1.162388601842411,0.5853844660454386,0.026858172826903136,0.05285907087849588,-0.8910048714170393
64620,13.583,-0.7699716361232241,-0.15920760279656612,0.4575909862542734,-0.4152193493520485,2.62590555199493,0.8279983852730791,2.957358124546365,1.4213517126524595,-1.0729456556940682,0.5062594835585963,0.011498113431756819,0.0384771904078118,-0.8957800122364402
64623,13.608,-0.7662322329898801,-0.16210368024569186,0.45101517599392005,-0.4280138701038995,0.5001871015654029,14.244537539251647,-14.25722631811986,0.9182799823607259,0.346092348455571,0.7069378212379249,0.023464471818876072,0.02090278090397061,-0.8965442569398132
64625,13.625,-0.7644785233587243,-0.16834598989303223,0.44673512364678875,-0.4331973503040938,-6.601103805007866,6.768887180746284,-3.623812770888926,1.1080252136558297,0.10103919364945102,0.12684195083303026,0.02515987131341568,0.004042047427068757,-0.8934438031808505
64626,13.633,-0.7654681512144179,-0.17403856880670263,0.4409625595743573,-0.43511045390535913,3.2531041795778384,-3.516197194303643,-1.1828615213402873,1.8041538625947076,0.6770021136009523,-0.6221633436361133,0.03177666401342854,-0.016194456278302828,-0.8991272012077922
64627,13.642,-0.7648678968896948,-0.18220065285438564,0.43581746455361486,-0.43799904109145005,5.026505872723476,-11.793577973688391,-0.7752476768987722,2.37060136227063,0.14492249261858428,-0.5029282945860328,0.03712753701347215,-0.024761530535685475,-0.8945060529207369
64633,13.692,-0.7892727469493703,-0.10894585335007773,0.45482122145805853,-0.3978906740201619,40.64656779441778,12.184432751193656,-6.345060335894365,-3.4530659678100504,0.8378667068203283,-0.23617730876223825,0.06295467565923454,0.1331429375830719,-0.8826487430802693
64635,13.708,-0.8104786403915039,-0.0570442051771123,0.44687931683792587,-0.3743917845083136,5.839132543844464,-10.85747788318302,17.959433001285284,-6.1105807972296775,4.137421030700022,-0.5074359116749871,0.12536331694150626,0.22166776450827383,-0.8616862206550006
64636,13.717,-0.8165800649897184,-0.0380438810532179,0.441983948755734,-0.3693235026614001,-5.998408737319119,-42.89816774989194,62.07499861434534,-3.8843634990919225,3.2819908856651674,0.43425928436518946,0.1482207872336919,0.24500545231538742,-0.840721607955332
64644,13.783,-0.8250819398220498,-0.016817105220904162,0.4754851108996403,-0.3047472507902735,1.4174198223143877,-8.875112038980552,15.858187788567317,-1.7596061026231338,-0.5561783742124832,-1.353870170450153,0.09316306645922048,0.3576612771174144,-0.8121018322296975
64645,13.792,-0.8264447246658337,-0.017010777007568756,0.4782620284756211,-0.29658924905666684,7.377692586331418,-4.0141518825294344,-8.05872965004826,-1.1503491634489829,-0.31420192568379046,-1.7032575345368837,0.08335450046621402,0.3668916705805717,-0.8023347528293313
64646,13.800,-0.8270757940820901,-0.014270885541600367,0.4818767571737196,-0.28902727131722145,3.0321913195324606,-2.2717438535782835,-2.8974145886742875,-1.67147713993225,-0.4888707206280645,-1.2123823394026134,0.07777239248603944,0.3730314197417656,-0.8098983085034334
64647,13.808,-0.8273498244835858,-0.010052729596749228,0.48513683931885065,-0.28290185169127224,8.329050803563364,-8.756868119735262,-0.27550372767810116,-1.782000968231454,-0.31907776085050576,-0.7275302780180838,0.0743509045770087,0.3891410023480706,-0.8091036050621749
64650,13.833,-0.8283678144145723,-0.018258961144052375,0.4825525596197869,-0.2839302759206155,3.8624340464176505,-18.67623230213978,-13.771870007198382,0.6447030200402999,0.02162813166539987,-0.2849355643659694,0.07679801219400532,0.371568935021958,-0.8103978899264734
64654,13.867,-0.8356474536576898,-0.01680077150982502,0.46941315337035694,-0.28471452143329734,-14.314468816657762,4.472678253569421,-13.086713148433914,0.16483382141679218,0.903402259186887,-0.06816185195143705,0.09049008910430961,0.3723235991591477,-0.8149729742431688
64655,13.875,-0.835933396814563,-0.00714906903493747,0.46757434112499124,-0.28729511381770917,-8.23783059628387,1.419794611142321,14.37727194315656,-1.532795480289341,1.1443152336572062,1.5747121485281983,0.10775843223814952,0.3790880215935944,-0.7999718791642688
64656,13.883,-0.8351868654749883,0.0007023268726936844,0.468684725083591,-0.2877447392192371,-1.0977608692588572,8.738604162678515,12.351515639979295,-1.5903395165918608,0.2378444176771512,1.0240659645733214,0.10432202748092453,0.3915191417119589,-0.7957768453474597
64657,13.892,-0.8346149671196127,0.0030495081027170057,0.469713633698832,-0.2877110694389399,11.391499577270185,6.912863760642082,11.81530401220095,-0.5500545549866513,-0.07697058618846112,0.2955700015093285,0.10748299369424379,0.39052853738056315,-0.7928379809769965
64658,13.900,-0.8332848857893147,0.0011721912350603442,0.47284281537952544,-0.2864517359464968,23.283726307482556,5.09414317388131,13.08890275894693,0.02055690599493867,-0.909927771993432,-0.37652162804219985,0.11165269932677703,0.3868875497362801,-0.7972317784500232
64659,13.908,-0.8311423694786239,-0.0031739428789810337,0.4779746855881803,-0.28413462949971513,52.782262221948244,-15.634888528424316,-5.45099332424317,0.24306375527641955,-1.5417766207404664,-0.8069128720241374,0.09431132827771453,0.38956486809304636,-0.7955859897394593
64660,13.917,-0.8271986993742828,-0.015418771806630925,0.48187100723465853,-0.2886258921443566,69.84447775577479,-38.45686342703994,-21.167079471771036,2.6992371098513,-2.06511934289679,-0.24526726808065857,0.07678183426928714,0.37692240064662624,-0.8067100942127713
64661,13.925,-0.8224165967683243,-0.03631479321713436,0.47776952632100794,-0.306673208599323,32.754026551165126,-25.307807714487076,-16.3530779470763,6.537438614951914,-1.0781041535024902,1.4525208201113717,0.06467674977667184,0.3221014743422635,-0.8299758708704773
64662,13.933,-0.8136068033976073,-0.061233508216155204,0.4771084675445463,-0.32659139170217516,9.529469901113686,-18.802895867143206,-9.272369236156917,7.341774735982359,-2.5351919593577694,1.6906566462795487,0.058162074068443204,0.2738453340329348,-0.8475702795559495
64664,13.950,-0.7995818007549335,-0.11465168314414867,0.46532332633991697,-0.36193664834839173,-0.13356240332466449,-2.724535770882345,0.12260106440961743,7.811681739887463,-1.4655574435552583,0.8186262629251546,0.03998042839603306,0.1624125404899166,-0.8769937725717638
64666,13.967,-0.7944033195565269,-0.13899574364786274,0.45112224329891215,-0.3822201861837038,6.9342718518047795,21.517226574492984,44.312830436759945,4.159027818323687,0.3144437907419033,0.5842048283626564,0.04124402388213794,0.10850375556304173,-0.8867685089085174
64672,14.017,-0.776020248193507,-0.15443502204234658,0.46177011226386566,-0.4008874677266485,6.690301656509906,-6.3085889876518815,11.050312444076035,0.7736407917280524,-0.7960510380476582,0.6472461255747499,0.010467409580509273,0.06698276046655235,-0.8834405068256688
64673,14.025,-0.7708964483403988,-0.16390227125190157,0.46316289442832825,-0.4053823437686953,5.766873526352238,10.612444426469079,3.0569138299398513,2.2944775349398236,-1.4724439541965544,0.28671437582902787,0.0019132597775435914,0.05134740042638785,-0.8813557217913044
64674,14.033,-0.7667477796464843,-0.17022469416709768,0.4645585152434826,-0.4090315169001966,-4.015499448458429,14.861403128631842,2.4931801002478235,1.6098550350817604,-1.1915957912603543,0.4231022675977598,-0.005644101068131485,0.0411053230322776,-0.8838794629015992
64690,14.167,-0.7770130142699893,-0.11625354720287713,0.4776877590174746,-0.39312885076355975,14.781165891674434,8.934085038596212,-4.850577756722327,-0.8334558301458969,0.21135813148708046,0.15943203365185063,0.026301336979489047,0.15532434619644164,-0.8753787618778348
64692,14.183,-0.8031618830497017,-0.06812367599360367,0.4652937345237698,-0.36577574413580155,13.907554634425287,-15.267814176793792,20.65188550296109,-5.8744291706721095,4.701184450008793,-1.1893472687399778,0.08699170018184549,0.22821381308147903,-0.8523014662554337
64693,14.192,-0.8119719684409916,-0.04677809966105531,0.4594392192735396,-0.3569718975654552,-4.934091962116851,-32.90515904885146,56.16196862301304,-4.733715882327567,3.8784811359572573,-0.1824147632416627,0.11036406260421183,0.259149050414137,-0.8374017948163258
64696,14.217,-0.827645972880248,-0.021194785116942914,0.456324908184777,-0.32606824872886586,-24.96900077390169,-25.250257122490694,38.96550367556997,-2.7697926993767337,1.3838343340307206,-1.527825202324523,0.13346173382127124,0.3169066570467577,-0.8155385827685158
64700,14.250,-0.8190124648131593,-0.02283628474677551,0.4947912269564082,-0.2896182458109466,11.876259489529824,-4.433969172520485,6.2920770027347706,-1.6653754069408517,-2.2215972843151643,-1.6241042533769117,0.049649418426528355,0.37053851366917623,-0.7992912243952277
64701,14.258,-0.8184684323044319,-0.0270954901358131,0.49910841508154147,-0.28331263602285217,10.988131048981304,-8.26836001322796,-7.024859891731484,-0.22985124447376268,-1.1948453645482466,-1.6717438786905876,0.035709820726410615,0.3778368842018426,-0.7939461591223648
64702,14.267,-0.818978175972364,-0.029549511176108705,0.5010196911669035,-0.278174123047514,8.977659687855654,1.733996140925204,-7.322088817431446,-0.26740050732487447,-0.5236680316274662,-1.3283580382996767,0.03399544645439728,0.3802724069200814,-0.7927212680515673
64703,14.275,-0.8185642650630465,-0.028206099469151886,0.5044888409210133,-0.27321780560699815,8.263170542596866,4.126546606523522,-1.2436642604272696,-1.0972378850671276,-0.6528155876464025,-0.7532048640259528,0.023464155949138452,0.387071962020457,-0.7851663316485554
64704,14.283,-0.8178427854942534,-0.024054473420431433,0.508400844779084,-0.26848303773493803,11.744660976322002,-2.568597700886915,-0.28830160592264115,-1.6369105212636967,-0.6200343056333704,-0.3500150317727274,0.017336983075364028,0.3943703325531234,-0.7797869941896715
64706,14.300,-0.8170345054739871,-0.022707132775619362,0.5087786298546084,-0.2703392475931969,8.96655258889641,-16.48993184603243,-4.788502666879279,-0.02775057990186621,-0.02339908796355332,0.28858149186525744,0.030283875434366912,0.391204738563845,-0.7814544031600639
64709,14.325,-0.8200301963661467,-0.030415385891570376,0.5000265062974543,-0.27676501648280544,-8.756490210813988,-6.501946893038509,-19.19012523817953,0.9508533475099513,0.5471461627935206,0.013785006851933696,0.03742952941636517,0.37638376819294944,-0.7963870432183104
64710,14.333,-0.8212090004727731,-0.02799285533051419,0.4981629376598152,-0.2768860146975601,-17.654513810833933,14.329213455508754,-7.388676494132267,-0.35817299492273774,0.7201356690160193,0.2170680308300411,0.03469035082276318,0.38145210789111117,-0.7841674582974288
64712,14.350,-0.8239847213001441,-0.002766831525643157,0.49734342579362234,-0.27146093738712507,-4.853963420189956,12.07054539575708,11.658186077677083,-2.7835804752891824,1.0683545081957817,0.8791626113280937,0.06754874266749418,0.4133252505562714,-0.7611648629067173
64713,14.358,-0.8238939134243504,0.004796938885645144,0.4990260671284113,-0.2686052738238532,2.6608551291344478,11.166791728663911,8.570261493416464,-1.9552273547152075,0.19519488816438865,0.3549512451985242,0.06801311315791461,0.4296567202904108,-0.7557132784198333
64716,14.383,-0.8207632982663731,-0.0039009998642614203,0.5078390530296277,-0.2615948903112113,32.67563430543284,-13.905276858533,-7.349322416203707,0.10473499806657559,-0.8963305567352841,-0.7480639021975944,0.037764723103244136,0.42382434774414496,-0.7614893047464084
64718,14.400,-0.8105891430966382,-0.0473133994614747,0.5062498628448739,-0.290547345014205,36.52284885221841,-30.806016872520345,-24.298930306242482,6.093463086670499,-1.7777462788631786,0.5036479058072201,0.025197579640707016,0.3446177459469225,-0.7907335823858729
64721,14.425,-0.7878411661319256,-0.1285951456761417,0.48789800537473427,-0.3531644401801734,1.2046625005740152,-2.051521665748753,4.753804005704447,8.3417946395528,-1.3695922891880423,1.1917575428176623,0.0017756277482478416,0.17888392113138965,-0.8499821793533029
64724,14.450,-0.7797445763960685,-0.14247789658478294,0.4808943553723799,-0.3747520027120263,3.9936870553524138,17.251071132281567,44.308951957152075,2.0029515114958802,-0.023255433278513954,0.9549264996501444,0.017415340456728903,0.1342219249117722,-0.8533017032536765
64725,14.458,-0.777842117451199,-0.13937910953808455,0.4816152010423485,-0.3789220266339032,7.010233158907557,-11.422130632251326,16.756500431292647,-0.09996926714149534,0.12034344967358271,1.316685541440798,0.02352640219171541,0.1291032283924457,-0.8550084690076036
64731,14.508,-0.7531884821426093,-0.17195165719008826,0.49192220798772474,-0.40143776509662915,5.469468857160961,-0.4044169005561677,4.114000162627271,1.4363305840273393,-1.164492895351044,0.4972261546335472,-0.023290187101921708,0.07228118491459862,-0.8684261429601865
64736,14.550,-0.7366143254211477,-0.19490736954644777,0.50125170856436,-0.410069722781556,-2.2697550644056577,5.511647161752266,0.9780670201222813,0.9914662352506072,-1.0793731074370396,0.15417479839402895,-0.05011247134394353,0.03447495606084303,-0.8760495346401727
64737,14.558,-0.7346538414156758,-0.19579199871097458,0.5005472289799477,-0.4140068816993854,-6.185133499794228,18.42968596028627,-29.83945766138353,0.7820455717137876,0.06451078236619665,0.7188717933845024,-0.05105127766868707,0.02206491554203593,-0.8846582849695317
64743,14.608,-0.7277461404813196,-0.2244373412280696,0.47643240090759953,-0.4393467904087142,16.79090719976032,-2.8273207064619994,-6.206500721046136,1.8087630273348323,0.29229526070313794,0.08089470234893127,-0.04612304993053109,-0.051616690323848656,-0.8950000844385616
64745,14.625,-0.7331967398723621,-0.19215873714615261,0.4942773034502241,-0.42566125930475684,63.688922935338624,38.10578013443759,-10.143178259408847,-4.693292491379093,0.15039488938967485,0.8396769988097221,-0.043636110359338266,0.02289687154426921,-0.9053741562663837
64746,14.633,-0.7435182245916979,-0.16746387988726855,0.5034740698364142,-0.40700167031041723,20.27793966168136,17.04079254029334,-25.371262466686915,-7.981161246742371,1.3001629246087247,-0.9639480722282893,-0.040978514935526233,0.07755446516401229,-0.89899666714332
64747,14.642,-0.7569470342901856,-0.14057984556107292,0.5087022513210288,-0.3853446688384761,22.26301605422762,6.4505078171597185,-28.06135845523331,-8.468895662357747,2.4351720760075306,-1.699085732868599,-0.021714362146067253,0.14173928906206196,-0.8937213549342566
64749,14.658,-0.7909593933425573,-0.08376373405200285,0.4922491032869079,-0.35363497459113735,12.008922352983298,-10.722136940055794,28.122380318667336,-6.9201315488850605,5.680502158368611,-1.2640659277012227,0.056084439371460335,0.23930775498851561,-0.8748452484756708
64750,14.667,-0.8005356226108323,-0.05821879141421042,0.4893445024081246,-0.3410208897124939,-6.178569822558792,-23.591957178950363,57.65190857299841,-6.290350351908445,3.632871023912479,-0.236077009450539,0.07725818321255014,0.28464595239141494,-0.859641987043622
64753,14.692,-0.8180348491448514,-0.01961567633673721,0.4908845793808802,-0.29910957950635564,-25.803135102527246,-28.59094577532791,37.02572295810127,-4.241033299773759,1.4347804596448386,-1.6388680753869103,0.08151568232047897,0.38166524606441304,-0.8283955512004602
64754,14.700,-0.8161071336412037,-0.017856638098477644,0.5018939975210537,-0.28592429443489986,11.964245525093123,-12.465361608548783,25.324158096518286,-2.700013271522566,-2.281004356409336,-2.1588119478662873,0.0602272161599093,0.3930870244295531,-0.8174475920394185
64755,14.708,-0.8115194905664057,-0.019207314254494394,0.5132301172025541,-0.27867910274403984,30.090502107757423,-14.08555953858864,-7.119305398994387,-1.3666406220116563,-2.905213391263124,-1.2049651812948186,0.022884492475392162,0.40628217739602157,-0.81998957240972
64756,14.717,-0.8106890637174989,-0.020905929357118526,0.517527053061482,-0.2729687407672507,12.607198804615145,-17.504960606142454,-2.162625552102522,-0.6645310994549284,-1.0594153590561177,-1.2362933294785097,0.019679507643951242,0.41235166122535777,-0.8128942899993135
64757,14.725,-0.8093686898671274,-0.02634620571730415,0.5222981737817634,-0.2672691882191183,5.376343687269561,-9.058271245324002,-5.120890332012434,0.04242751426201207,-1.4879694206830407,-1.6737653514256143,-0.006679836717689411,0.4079653781547994,-0.8147399862936027
64758,14.733,-0.8088392072689906,-0.03197404712512807,0.5253961035577287,-0.26213685635802414,6.886171305952113,-1.533870081250985,-8.394177967603746,0.24351457606421623,-1.042997575464738,-1.6443940888442408,-0.02325425400382854,0.3979850049099096,-0.8209642155479826
64760,14.750,-0.8079969995097483,-0.03230842622452629,0.5314203441991849,-0.2523676527397241,7.56982767464964,6.005485585884753,-3.091537871696446,-0.7686361408866227,-0.6928558255920055,-0.9194682354398686,-0.03823680126634185,0.40496663011673345,-0.8004882064153785
64761,14.758,-0.8083433933915688,-0.02879776539142343,0.5331491194526625,-0.24799932156261043,9.191905695456832,-7.052787286274541,1.765137035914469,-1.3566201173688943,-0.07185946686636718,-0.3946607344821335,-0.03529689438567933,0.42695074446841913,-0.8028113120330604
64765,14.792,-0.8109123371960855,-0.03636124952227874,0.5248851767434344,-0.25611441222893877,-2.2903591434015698,-10.472682482589727,-11.372126781296604,0.7505536352060659,0.38229560768678045,0.0875697933795041,-0.0418613649445865,0.40378692914570374,-0.8090548682392747
64771,14.842,-0.8102067608578785,-0.017915492042352026,0.5270797342907526,-0.25579482697086553,-2.395565627242642,11.685332824393965,-0.6707105519619582,-0.6238942905902488,0.11546722930255228,0.385047722800285,-0.02734505232624827,0.4156056382119407,-0.7789045626342179
64772,14.850,-0.807725745533846,-0.020867928388945137,0.5316517223057063,-0.25394900223454797,38.20085631198376,-12.388579943970415,-8.11007572924727,0.04440686682822027,-1.30110534884083,-0.5331590126502264,-0.04511255661754564,0.41713019064155593,-0.7914266284154237
64773,14.858,-0.8051539943381211,-0.030419761289464834,0.5345017638673829,-0.2551657264350318,59.648336457962785,-39.85764361123531,-24.18263731412137,1.8476867269609636,-1.4632791993054357,-0.8194570355691703,-0.04878067141240005,0.398812827889168,-0.7900657115196691
64774,14.867,-0.8012181644946985,-0.048856842068500654,0.5329855396281931,-0.2675609770016614,44.834496152100975,-36.58708720619686,-23.968326888339533,5.270190616508021,-1.2154293547170396,0.2417215016496083,-0.05506216537392598,0.3622635918714857,-0.8051614828036663
64775,14.875,-0.7926036107597163,-0.0723875415807589,0.5320895947356312,-0.288825593063748,15.564576508060942,-21.265736695937495,-17.64258648697532,7.416935845457982,-2.186707123443739,1.5935683296390342,-0.0635042537196995,0.31452383332741224,-0.8286213685910029
64776,14.883,-0.7828852084501509,-0.09791003168316369,0.5302563918979049,-0.31037482974168756,-0.21262247707618437,-11.846386133176399,-9.559089107659831,7.904772287315975,-2.2422444882868007,1.4491983202964989,-0.07710103517737178,0.2640681104940507,-0.8457691052092062
64777,14.892,-0.7742377467301379,-0.12390981050569158,0.5245168178188739,-0.331789659609585,-2.1666021617317117,-2.968973982998622,8.551861397216172,8.25333096927047,-1.4527859622626809,1.188790131674966,-0.07878404995135889,0.20135162676013013,-0.8516926849354666
64778,14.900,-0.7690909588515524,-0.14192106274247832,0.5161126530984175,-0.3492638519437107,6.813468241428823,6.733492444375052,27.57494603852892,6.369181076058639,0.042453804417476135,1.0967004010483297,-0.07777025595129054,0.16208525536429547,-0.8601775502867534
64779,14.908,-0.7672143070702077,-0.15072640671117243,0.5083984618438224,-0.36082511184998656,17.31512268969442,15.3814034285751,36.312178842759586,3.7773090643155296,0.8489630028064092,0.9108372131887565,-0.07476503116100357,0.13384724489909688,-0.8773900259155496
64780,14.917,-0.7651365613523561,-0.15405942860091904,0.5044530695229329,-0.3692679726024741,7.2835449511668156,7.603879926462226,46.51022128274105,2.062295489639771,0.5301320720173359,1.1583291742043722,-0.074294797102579,0.12601492626821093,-0.8732750554461824
64783,14.942,-0.7585474300194646,-0.15810664387092546,0.49899481553934316,-0.3880879534842514,13.398805712790837,-11.838435827646437,22.8851530541619,1.259811251380587,0.18329774674357968,1.1032962587118709,-0.06308307726253286,0.09572075745290601,-0.868976564392745
64792,15.017,-0.7230561883660905,-0.20248427193126645,0.5197130112050544,-0.4075392669058296,-1.7725161273702117,7.4871101297180624,0.8196542747218717,1.097194884162522,-1.263603666228691,0.25000386632248073,-0.13949173883244922,0.03566871009824437,-0.8708205516363633
64793,15.025,-0.7223325511486253,-0.2037207975541504,0.5190276492981211,-0.40907679164074523,-13.522908225179197,12.37561143969247,-12.62179728740305,0.48851332914282874,0.12151559826339807,0.10449565424541109,-0.13731476616569263,0.0319843921659823,-0.8661899048729628
64796,15.050,-0.7175152174389491,-0.21620830763437474,0.5081202671195416,-0.4245464339689858,-7.604639373903294,7.409757697582466,-8.27728642802169,1.8062562323541198,0.27279487007521663,0.339681184474537,-0.12045215844256112,-0.015604915670978901,-0.8700063976096327
64797,15.058,-0.7138761235829941,-0.22642964882114616,0.5023156647933664,-0.43219147054985785,10.134317563891448,-18.326512452078973,-9.56672588623982,3.4685967863437397,-0.027680756136373854,0.10193435996490097,-0.12608509358647918,-0.03710895201220248,-0.8659837826309599
64801,15.092,-0.7152721977225152,-0.21949939377173733,0.5078034692384289,-0.42701444463678234,60.77987484019082,14.496624680691939,-9.950652238433026,-0.6088971588017725,-0.08608465929096921,0.022121780601364324,-0.12361523581858816,-0.016081480414847995,-0.8724640175114582
64808,15.150,-0.7984134941917401,-0.05702806750322778,0.493485879065926,-0.34022842175796214,8.081161955583015,-11.886895615789896,21.234141081392227,-5.951654242046105,3.557019921552216,-0.6253719338964181,0.05124339164212637,0.29011239387953797,-0.8287233745526146
64809,15.158,-0.8062382835165179,-0.05477246477537895,0.4891901910116445,-0.328135283553536,-45.28277507241518,-11.910693793825132,37.61503482597609,-1.6440065174611114,1.8691129216589468,-2.740226219634638,0.05534225244545435,0.2939623866741482,-0.8169679277911562
64811,15.175,-0.8037144330703341,-0.05466650450812999,0.5124301991330652,-0.2974390263158844,-0.15840369078946842,9.730473791064973,22.915743464748438,-2.718129998308724,-2.610357508983201,-2.694195719113029,0.008650951674178847,0.3373533369913207,-0.8032924519314621
64812,15.183,-0.8009540812672021,-0.05483893426210005,0.5217666316224924,-0.2884871454947827,29.749852582061926,-12.463225744456802,-9.373283572282185,-1.7084136933492349,-2.2396574908579785,-1.4048463430479377,-0.0011243929710696467,0.34564348294424707,-0.8010982563217741
64813,15.192,-0.8010389844496406,-0.0559053669694094,0.5262685982316431,-0.27973647930008366,15.045781597464842,-19.282608290063692,0.7870500156452879,-1.2062149313481823,-1.0548266523758631,-1.7584561568625188,-0.01920575286273212,0.35197467092280366,-0.7977291661949684
64816,15.217,-0.7988820979447455,-0.06545672451658091,0.5376385598738902,-0.26162490274378014,9.173299533462766,-3.140692055280922,-6.236850016380717,-0.3990542051562423,-1.1145287195566962,-1.4608516802181326,-0.06000923673630243,0.36439056688593224,-0.79052423519519
64817,15.225,-0.7983970207682223,-0.06292053240064809,0.5408220710636382,-0.2571277722870151,13.527999237411757,-2.2270345962979343,1.4065725429051654,-1.26820714700811,-0.5444413668243999,-0.4426183902509997,-0.05955106616214478,0.3699729461716207,-0.7836593653198841
64819,15.242,-0.799600098665609,-0.05993237205552941,0.5392015505461497,-0.25750627348158767,7.456572479781141,-11.589899205306617,-1.1636051810298464,-0.21487421896069744,0.32665594940204135,0.1737736804644962,-0.04733679412578164,0.37657286483258345,-0.7852831442038835
64821,15.258,-0.8006632679250876,-0.06594757719093519,0.5337835996232785,-0.26393998793547924,-9.308115096049564,-6.5327379204904865,-11.975356072698869,1.1526659799594499,0.47022053755867954,0.1465146730103519,-0.04067067921398142,0.3537047152361532,-0.8022096555712682
64824,15.283,-0.8017250102508504,-0.06910552678100333,0.5313564741321454,-0.264805082097093,-19.74083631821622,7.331756337750937,-21.57933809183976,0.2865614488246655,0.14610920923585122,-0.12188514797232056,-0.03413457064238942,0.3504700270038814,-0.789500918133532
64825,15.292,-0.8023661042948976,-0.06259408032173412,0.5323328467167393,-0.26251163039712844,-11.043298176119471,12.542099671363369,8.031700797713437,-1.6251713894338295,0.31952727654123,0.3695242541851034,-0.026782828268493177,0.36246322831089856,-0.7957589273017059
64826,15.300,-0.8020646140198223,-0.05506579646112649,0.5356835046883618,-0.258269812022484,1.939566045293098,14.797169878985821,4.804004775620356,-2.1921453493799614,-0.27469866802410786,0.21880722914899073,-0.027808981002053056,0.37827831627978276,-0.7844568597943417
64827,15.308,-0.8017907355524012,-0.05054974277288336,0.5380190995183914,-0.25517011666994693,12.006717376357056,14.848465605852667,9.65350398613639,-1.4124600655602335,-0.21585970861570178,0.03941550575051878,-0.026111020974203494,0.3924265987339895,-0.7819400855820297
64828,15.317,-0.7991332230905973,-0.047819876962044386,0.5437982760897594,-0.2517593812392594,32.78766498853878,-0.21962306998839207,-1.9469001354870976,-1.2825737762833176,-1.3323503913055905,-0.06539772003099105,-0.03222968754859579,0.40266399177264256,-0.7784997789288465
64830,15.333,-0.7928657806079386,-0.06028367256188002,0.5498796054530636,-0.25566022817442624,59.09074966083905,-36.000125206537795,-15.637346621324797,1.3018869080744018,-1.3335813012713338,-0.21644471814078864,-0.0568325806492939,0.3812395894741911,-0.7911619141668268
64831,15.342,-0.7868448687280992,-0.08003598086601883,0.5478818893923696,-0.272570779062838,26.59695562899324,-29.22068404847625,-16.954846436272955,6.200068400586916,-1.3417298952753838,0.927893707804033,-0.06408419661578363,0.3444532421734386,-0.8077279533543101
64832,15.350,-0.7769151637139575,-0.10412654906576414,0.5473154192385319,-0.2932683447539467,6.520964598956808,-16.77307364766596,-11.959170954072599,7.511180559239985,-2.3736125238653747,1.3518462917892298,-0.0727820603191694,0.28986474279668906,-0.8285362101819735
64833,15.358,-0.7671992697221808,-0.1300137570536039,0.5435449494265193,-0.31473892588537905,1.9912561337319516,-6.880009113525022,1.1481080902253171,8.157435810035457,-1.8149720808420435,1.1548420669952248,-0.07831451457651255,0.22672205114006408,-0.8474184479130689
64834,15.367,-0.7596167149649545,-0.15239813228193758,0.5373187437627445,-0.3332353871125546,2.4468495829143255,4.450022998958842,17.9555066691951,7.251366976719521,-0.9551843315364619,0.8306261020423107,-0.0924190816507472,0.18723145043866646,-0.8601211896431739
64835,15.375,-0.7568721449872139,-0.16694404588142733,0.5281600336393346,-0.34687349358705805,19.018432814454798,19.28364679434768,28.368394148585104,5.241821834922431,0.6903902311435396,0.4534196051080118,-0.08161818262653928,0.14066436633243698,-0.8734810564319346
64838,15.400,-0.7530484430231934,-0.16816094363443884,0.5242615972521303,-0.36026339967163495,8.020579251775999,8.903628654440759,35.06943287424032,0.8074161759539891,0.2208380873666382,0.8023844953139824,-0.08016681352285863,0.1186767387141585,-0.8704062663082972
64839,15.408,-0.7516142611135687,-0.16648859218772794,0.5236056664021109,-0.3649584322544889,17.111476995551197,-15.63210031909239,13.61030940909045,0.4009542448319397,0.3403310461617003,1.1349879937059248,-0.07376156964855901,0.12752893889804756,-0.8835195765874453
64840,15.417,-0.7496393984892424,-0.16806088225808488,0.5241808328178484,-0.3674653270632591,15.062098666271662,-9.0216238776383,5.351972857812743,0.6342888932557266,-0.3899191498969901,0.4432486563972058,-0.07889695919071192,0.12361336512703672,-0.8816077212142042
64842,15.433,-0.7441730310592064,-0.17722688797123,0.5263430997869719,-0.37116043880083516,2.2026716671666215,2.7032196186501447,3.2685011816788614,1.0742036837202733,-0.8542965306948442,0.029615159899570503,-0.0874338754876055,0.10335812399983638,-0.8834513541278609
64843,15.442,-0.7409924478899793,-0.18056342256641306,0.5288573069674625,-0.37233988702292153,-9.198524967978903,8.003946091182282,-0.7828559796722179,0.6562662035864019,-1.0676976109941685,0.16779201595718285,-0.09600878515725257,0.10723153857173257,-0.8766343090108123
64844,15.450,-0.7374362893918512,-0.18335517944721882,0.5315454386266546,-0.37420321208275764,-10.089963092992315,7.454631230364856,-3.1241518808316435,0.653811615887065,-1.098778942023431,0.40727250553687555,-0.10723573250685534,0.09771367700434032,-0.8774616537057729
64845,15.458,-0.7338675490260855,-0.1868293291955389,0.5336891685060527,-0.3764426830981169,-5.683563995022659,4.096959302339797,-1.8732596304786078,0.8662710749327679,-1.017421853987742,0.35591851019522125,-0.10624498934444998,0.08503373471426266,-0.8806920267898843
64846,15.467,-0.7307163730852314,-0.1919871973160754,0.5343745056554047,-0.37899655127378795,-1.959806378263602,0.10649783913109578,0.2838943340957006,1.3205268651856759,-0.8779257465424588,0.09656860980654236,-0.11012858759719509,0.07919901999026818,-0.8858641135544262
64847,15.475,-0.7276886351249279,-0.1986415883675363,0.5339167799672229,-0.382025708232148,-2.546692477059822,0.29118364713111655,3.3039487732401738,1.735963462274378,-0.7453895436515269,-0.08542497990691099,-0.12327424606454901,0.06385932567638873,-0.8945404671055925
64854,15.533,-0.7097597975777695,-0.23044236696727952,0.5139443997973003,-0.42308214233866437,-1.855407278664571,4.277921561591206,-8.839800683824675,1.9372686583672438,0.03316707269537233,0.526225362748239,-0.12255590797368357,-0.030639575547658907,-0.8913284291111382
64855,15.542,-0.7041443025052911,-0.23879365155977944,0.5160674336865597,-0.42524439692046784,30.651483972291963,-13.506134680123306,-18.934882124168116,1.7721784869838688,-1.6512920700559635,-0.017589739770652247,-0.13382879502108347,-0.04557882589384853,-0.8816837124276364
64856,15.550,-0.7035277461050546,-0.2414045652204165,0.51330014039773,-0.4281302514641477,76.12021617069401,-6.154364240342597,-12.58985163289408,1.1218499985704842,0.2879288385478527,0.05590560397837336,-0.13186162205248725,-0.05239946059378149,-0.8848816956261957
64857,15.558,-0.7059569692480263,-0.23389005039202918,0.5138765978367369,-0.42761085591165304,78.73268882905644,22.110632509829642,-13.526265827226446,-1.5295259134767014,0.9817046463596277,0.6069467149962071,-0.12524227395654364,-0.04138281055178848,-0.8911476021221922
64858,15.567,-0.7129555521790346,-0.21612187553828632,0.5151147909206696,-0.42384250342038204,47.22227855804359,31.92504847520992,-4.445970387941653,-3.986251660388225,2.26725583479824,0.9043971988794292,-0.10690993641916068,-0.01645616042752331,-0.8960746715806649
64859,15.575,-0.7204596470075808,-0.19541696945123124,0.5215822980832429,-0.4131609993820959,23.028135956735422,24.051646113416297,-17.89606978008755,-5.907853443925463,1.413476640753217,0.3137991715194448,-0.09815641187848494,0.039658062467705875,-0.8879544325769535
64860,15.583,-0.7313969424330499,-0.16972526661637355,0.5263696918009413,-0.39898219762912884,17.350001333999696,10.438223786553365,-26.534321611298214,-7.201354187756297,2.4213867937329385,-0.08205872331300647,-0.0783512264378094,0.09071682764228052,-0.8947028544346456
64861,15.592,-0.7487764365725809,-0.1408640186566669,0.5202564138899832,-0.38577770812722867,13.086617596439648,2.4161070428566025,-1.0688061207584607,-6.858979551939017,5.5345828423034575,-0.5836841590050265,-0.038333889593336716,0.13781317549127248,-0.8896626176302772
64862,15.600,-0.7652188339694148,-0.11536090003159499,0.5102552199108759,-0.375195428325151,-1.6670792257730223,-21.17920359387946,47.85551353125417,-5.532684455907889,5.849584244984763,-0.5881528261471068,-0.00928346645378423,0.1834657760422856,-0.8890720409609888
64863,15.608,-0.7770416059470376,-0.0951257591635142,0.50254371192204,-0.36688860731621525,-5.455914458342406,-43.92631757266421,56.161716375979545,-4.367115794218354,4.494001185538685,-0.327183972907499,0.030707516818495994,0.21051354573667577,-0.8780244458418199
64864,15.617,-0.7866408085542258,-0.0789754962783464,0.497933158625432,-0.35640100848067674,-11.573493302072347,-33.618612181111125,51.3239500073586,-4.089318328673197,3.193358307760378,-0.962356480160161,0.05140294156687773,0.24072573833147992,-0.8650931524362945
64865,15.625,-0.7951881841863954,-0.06837035970162866,0.4927644913008981,-0.34667622035204626,-20.4239023370751,-25.620399235961294,37.68144027667247,-2.889380363134154,2.74592326367063,-1.3997515835475154,0.07116058988497356,0.2604821640263895,-0.8610053762064677
64866,15.633,-0.8023671477995516,-0.06137826065472455,0.4924144064403767,-0.33161381391761213,-34.0035664635642,-9.914281062339475,37.41065900784914,-3.2110537628035107,1.235241511668495,-2.6492057488900054,0.07555225872874716,0.29270601359445675,-0.8603432449249712
64867,15.642,-0.8032720902430049,-0.05780906667087156,0.5022216814553826,-0.31493720568298167,-15.294891211591555,4.90197326652679,26.907282822901468,-3.4633813324677387,-1.7300235575725549,-2.6958743340010787,0.0452442910353543,0.3187912850901944,-0.8525384093956491
64868,15.650,-0.7995021586461386,-0.0580926681353294,0.5159210230403114,-0.30207124691721665,7.310460517652958,2.6818047964170355,2.9783235793127876,-2.483204945282358,-3.307855802180357,-2.019379342777551,0.014449390064906947,0.33193842341322677,-0.8450419184576378
64869,15.658,-0.7968978671355459,-0.058734545910810725,0.5253470455804178,-0.2924286650986796,18.2725793583891,-7.700371659044801,-2.084175625437089,-1.724600367378644,-2.296027369234952,-1.5907312640259343,-0.0029284615488017096,0.33774971635993534,-0.8350802998567146
64870,15.667,-0.7950862547114228,-0.06089363643178757,0.5322417271910694,-0.2843388057366471,20.168598304546947,-10.30098342248469,-4.742791970655899,-1.0672880547072285,-1.822858239398012,-1.5881994163794448,-0.01829769510263288,0.35216672949654826,-0.8377641697829595
64871,15.675,-0.7945532202668829,-0.06366384072859092,0.5363328676514515,-0.27745116799895075,14.614172420405566,-3.446291183941277,-6.785684453591825,-0.6299311163610078,-1.1208234931383492,-1.5639725347543176,-0.029292608759713352,0.3580166683757786,-0.8358311754454015
64872,15.683,-0.7942547944097094,-0.06458972611864648,0.5395789033024706,-0.27173902176171116,10.138887279010733,3.840062410558298,-6.526763699283443,-0.77015972921158,-0.8143683944605198,-1.138161282518293,-0.04198668700999558,0.35606473693459467,-0.8361403718355583
64873,15.692,-0.7941965047546434,-0.06123351481599641,0.5429469449895339,-0.26591536891522294,14.4008869637735,4.586669598842644,-1.3558192046977424,-1.616512425080911,-0.4974230757920154,-0.6094186662963865,-0.05934965773716478,0.36726345708303604,-0.8295708860670152
64874,15.700,-0.7952878015783446,-0.05478459132016154,0.5448773940856344,-0.2600472776804538,16.12579364348226,-0.8073498882371977,1.1938775392331349,-2.1293836991049067,0.09550574031071624,-0.3170003745752023,-0.04254725441302434,0.3813766068713138,-0.8196636454810992
64875,15.708,-0.7968214509604874,-0.05063718730182697,0.5439554962772624,-0.25811599838278204,11.855495201043615,-12.044843127734158,-1.6187410165468061,-1.0079115152034663,0.6373106883562484,0.06927989246107918,-0.04791420259020112,0.3904143904282441,-0.8206204196063687
64876,15.717,-0.7974173519195739,-0.05212302000621498,0.5409789916345236,-0.2622031431030157,2.8401734313723757,-13.6767062589894,-8.479626928517867,1.0022488211088172,0.6044990713126854,0.5008305951393769,-0.04403783928555567,0.383789878901131,-0.8137991095294691
64877,15.725,-0.7975931986420863,-0.055318619740108495,0.5390432120007341,-0.26498557580718657,-4.0185020255272645,-13.213922907927401,-22.80180607785853,1.091327969607018,0.2557200420827878,0.07621821061127679,-0.03861199160371776,0.3750606430479931,-0.8262686150174494
64878,15.733,-0.8004912626971774,-0.05727608732589473,0.5338812416254902,-0.2662780651997834,-8.889318625319351,-6.820902419737933,-24.3910274030447,0.8357129804698993,1.2518648487832036,-0.2747825035289846,-0.033014910264177154,0.36991384039592334,-0.8221182715724522
64879,15.742,-0.803337253482562,-0.057773327404035284,0.5294163913058988,-0.2665141355057923,-17.349421274212457,1.132061290408372,-16.214547038884607,0.36875798320606185,1.2238184636414555,-0.27188483380823314,-0.037835594119781164,0.3716907282638448,-0.8362913512377091
64880,15.750,-0.8056387650394482,-0.05328628489470712,0.5266288012554635,-0.2660241676917086,-14.5043023360626,12.37776942660234,-7.387044976792673,-0.7745653737055316,1.108910697440951,0.28144183268868994,-0.01516713797217829,0.3711626356099467,-0.8278934839706639
64881,15.758,-0.8085216896886622,-0.038620118093191824,0.5247608681972289,-0.2634904077767327,-7.607800285570517,8.082675739035732,20.423991057774177,-3.0706382967111994,1.6667753914003958,1.1594355386976134,-0.0020206551055367713,0.3982221161929798,-0.8194050541620046
64882,15.767,-0.8118272098873625,-0.02166458974931801,0.5231025350745393,-0.2585168556131005,4.545800674357611,19.222383324754993,9.754775504994646,-3.833182748462936,1.7663399258300327,0.9479020765444179,0.0023303673593468876,0.42796008622164355,-0.8094774859064274
64883,15.775,-0.8135796052997366,-0.01342651166886982,0.5227407994653218,-0.25426366472441064,10.388547151850053,9.636346818113786,14.632740089010781,-2.126790226356226,0.8090563568382912,0.10241957496145261,0.016937673325440793,0.4418314403713939,-0.8000693263846381
64884,15.783,-0.8142614764603283,-0.009056658250586339,0.5237877358566747,-0.2500852507848401,29.507660610640354,3.9146757421212484,7.390174021685046,-1.439760925972305,0.13030275562855526,-0.30663242893178094,0.011064395828637183,0.44352518092995025,-0.7969130719086014
64885,15.792,-0.8114964686120599,-0.00883789164902792,0.5310911646962752,-0.24359299637491666,33.96912816698761,-11.619725427703571,-14.962898780971841,-1.2976414770416485,-1.7524593011115153,-1.040722465847,-0.00875067786643923,0.45520046582226065,-0.7879105993719355
64886,15.800,-0.810996933686923,-0.016816647055893325,0.5319568022826744,-0.24294677284828847,45.99484796229637,-45.22647979793137,-32.23996824329838,1.4222724955238688,-0.7080318641713287,-1.1211210559353546,-0.008480578877853966,0.4430216811422023,-0.7938273334564636
64887,15.808,-0.8072157491063388,-0.03687644099589748,0.5310873087819081,-0.25492966274044854,26.80118897454233,-35.50149615140883,-24.51543102092753,5.497943527182742,-1.4005165109575974,-0.029139068662012244,-0.023027385195732157,0.40431385071073755,-0.8170265290509776
64888,15.817,-0.7989780103047723,-0.06391496329576807,0.530431304106137,-0.2760283466251084,7.921093379766456,-18.288821570887833,-22.42225816208063,8.052241347194398,-2.388221728355406,1.109288758057022,-0.03732853015492132,0.3441230635376065,-0.8405718439352163
64890,15.833,-0.7783515688014327,-0.12728504278086233,0.5224425788759983,-0.3240695990154258,-3.419101573392816,-7.096763632220709,-5.897190736793227,9.573847681089656,-2.256275298110081,1.1560185784179509,-0.06352979600071922,0.20758389194160343,-0.8784519070168468
64891,15.842,-0.771680392358281,-0.1497223559232903,0.5126883160724743,-0.34531620111040245,9.915773741399095,20.20276425397024,43.493396693611245,7.823307752290539,-0.0649870749704683,1.326269401099984,-0.05397518431446262,0.15586180756125417,-0.8859824702536347
64892,15.850,-0.77052345993903,-0.15375338657596097,0.5070993348518785,-0.3542650962101567,13.701758772300266,43.715904871443314,58.21604604023342,2.362233652556008,0.8826814051489505,1.0354270296528207,-0.05882675231042972,0.14930404809940598,-0.893115438011067
64893,15.858,-0.7675375878944828,-0.15011769829652463,0.5107647117222323,-0.3570296025353894,6.679483835514138,35.07168235619912,50.1932859686347,-0.5314125534850708,-0.5910149604103774,1.3357131133227453,-0.060567778122632115,0.14585098600589272,-0.8858152661249119
64894,15.867,-0.7651646579427466,-0.1408111749213137,0.5163251804141877,-0.35791558686776404,-4.665671479856251,-4.947914911176068,21.916027490766478,-1.9841087597083154,-0.4801479759370714,1.7123371620365202,-0.05936245568108436,0.16365665134848262,-0.8823065258918638
64895,15.875,-0.7639379243815868,-0.1349177583227886,0.5184466347649779,-0.3597348093826572,7.8988085791249505,-30.18883912930065,6.357410342617906,-0.9906350126779363,0.060279482149656276,1.23705467523888,-0.0488817330519991,0.1677882568030064,-0.8783343968490688
64896,15.883,-0.7633063087451831,-0.1359824949559482,0.5171590424409621,-0.362517261543373,22.824331610658195,-42.876739793464104,8.793503822692026,0.6798806836864006,0.15493685316178574,0.3803510241440919,-0.04226114956642783,0.17099366781367079,-0.8848819132952377
64897,15.892,-0.7598101704116723,-0.14567866782038352,0.5160008896932633,-0.3677081893524059,22.255711727150988,-16.838296923960367,-5.883048079287707,2.637173552093958,-0.867373190329406,-0.007616383053503317,-0.061073216257041124,0.1470529376653441,-0.8819053852748585
64899,15.908,-0.7472374950692029,-0.1690147584131114,0.5139848107026829,-0.3858623482126601,6.091852810447589,6.28524407991935,1.2667386696699205,3.569485969308502,-1.3063836639477169,0.7141086960754394,-0.06884588317094037,0.08996684786054798,-0.8910025664341258
64900,15.917,-0.7413835406874633,-0.17723664611906,0.5142582415535308,-0.39303444869942056,-7.859740242459069,13.138279625148979,-3.6343852908108634,2.5751512585199086,-1.1927295666617264,0.7980837720814326,-0.08865489294022182,0.0679569695538479,-0.8833823799412133
64902,15.933,-0.7299917238959311,-0.19170937274695896,0.5158367330581501,-0.4053049028476075,-6.81315445898537,7.777919354536888,3.0592573982263414,2.2213036362770255,-1.2640715413030836,0.7593446141698561,-0.09495038174044863,0.034810438808514185,-0.8952879950664873
64903,15.942,-0.7245381144337438,-0.1994393088849329,0.5167738296334689,-0.41013813747352756,2.15574168753934,1.337094757504665,6.969318305949975,2.115394474334429,-1.3238807984029786,0.4396639454733026,-0.11475106501862177,0.024284406576761827,-0.8895658516634218
64904,15.950,-0.7197463506401529,-0.20633315845419722,0.5175115897507301,-0.4142144045493463,3.154880117942702,2.537889868240374,-6.255573814448871,1.8677867553459495,-1.2069461683629192,0.35195603681038384,-0.11937341672433913,0.014292322443229083,-0.8932962469618942
64905,15.958,-0.7177172333209273,-0.20801429382198586,0.5160979582153886,-0.4186345949462381,-0.9329551697677362,6.651194033451377,-11.875936229133025,1.0859896621971623,0.07464785766291743,0.6649019348388855,-0.11279759405810906,0.006950621622583769,-0.8896404301262193
64906,15.967,-0.7164123949660086,-0.207405128015892,0.514397863813244,-0.4232389761306845,-0.08630091049198722,11.878099283306543,-20.907564258265936,0.7104756986893737,0.42409239273600724,0.9032275334957351,-0.11203834274479726,0.0040502450491188315,-0.8957546567175866
64907,15.975,-0.716512263832829,-0.20935239142512335,0.5066045538049638,-0.43143200860136677,1.3055926172512562,8.261523565266724,3.3369754914710157,2.1395325883195424,1.5952067462279762,0.7374918403954672,-0.10495690727326361,-0.01279409318368287,-0.8960485373702225
64908,15.983,-0.7150438475688977,-0.21726389731966794,0.5012773226021938,-0.4361533455335544,2.261649331882314,9.4651941466153,10.615294973925394,2.563897393867628,0.15168604148329953,-0.28406954108267224,-0.09374104216849069,-0.036491856604617824,-0.8926949690901232
64909,15.992,-0.7137350094178494,-0.22678546332695518,0.49462361681944234,-0.4410194640141567,8.010214971451688,-5.268109661985964,-9.898577319356162,2.9853571207992595,0.2668114591248068,-0.5502631369878515,-0.08717976645914874,-0.06508994268363781,-0.885723139465796
64910,16.000,-0.7112398869188603,-0.23646708981717382,0.4871098574538885,-0.4482690324574021,15.763680946912043,-13.410252137007491,-17.214390840442107,3.455103037549168,0.357833853582626,-0.0756597886920315,-0.0876516750030447,-0.0794765075097791,-0.8894564070621693
64911,16.008,-0.7110395012209264,-0.24127756490961533,0.47627806864119465,-0.4575665696990943,23.218697011911825,-10.829253826539242,-14.882094690278624,3.0901423085634034,1.8674301273869658,0.3903789958400859,-0.07887697688657548,-0.11342805921346727,-0.8861627340992259
64912,16.017,-0.7143805219156423,-0.23479492120509235,0.4729010452421743,-0.45923459831842883,31.661829162945914,9.870280864181794,-9.715443689079107,-0.7310514114745379,1.7663436192123403,0.4515197500229018,-0.06494442163291783,-0.0914369183285959,-0.8899024572579535
64913,16.025,-0.715997119408319,-0.219992516115013,0.4859500289889258,-0.4503376368659825,58.32867057011561,41.91701758840753,0.784243152024931,-5.070245440144768,-0.8870911564105948,0.7204202306702083,-0.07274254609657711,-0.05846191788993183,-0.8931965305080277
64914,16.033,-0.7188859933823615,-0.20231992827054396,0.5002058467212921,-0.4382507114074008,42.53002904573336,37.19462795934931,-25.958014283211376,-6.133467619930724,-0.8413696972920665,0.4491202788875,-0.07713823207076086,-0.0015778067022770952,-0.8929429475328402
64915,16.042,-0.7299059951918457,-0.17505192325006028,0.5095806706440023,-0.4206204969511893,21.122512556912145,12.198141857665709,-27.4826290065538,-8.341100220995996,1.7532525890707664,-0.45053551027193967,-0.06690258272052267,0.04698688131084393,-0.8887587533734207
64916,16.050,-0.7440915783358995,-0.14649375425302338,0.5156758928544768,-0.3986799174064113,13.259203663204422,5.629301214064874,-20.868598715280893,-8.901108220379054,2.619217245644857,-1.507168870100087,-0.04300514224574282,0.11043343631580406,-0.8822459279511633
64917,16.058,-0.762617933548031,-0.11770680030609712,0.509768451541362,-0.3803881207474199,7.932343479200535,-6.475435724656147,25.281795757638896,-7.4980246869402345,5.4934012068766656,-1.6768775755470442,-0.0012684049540706958,0.17072493713126452,-0.8795763105869919
64918,16.067,-0.777809396413296,-0.0953389555616674,0.5011616433379763,-0.3670967633341018,-4.096028056474275,-36.94060916862801,62.778191219931564,-5.365001596422773,5.092395196285122,-1.3337029380886531,0.02648105366828489,0.2138483278548951,-0.8606926396897561
64920,16.083,-0.7957332003694139,-0.069264017999506,0.49638883513015597,-0.34001366737021166,-6.254496410076839,-40.48430988892551,48.59433634281509,-4.061572541580502,2.37009182130611,-1.7999189121054304,0.06060777676229683,0.27214105367459984,-0.8485443089094139
64921,16.092,-0.8040238256402951,-0.06002258028250891,0.49236047774839403,-0.3279087336597601,-4.010426211312109,-22.63921312974037,37.068830673303474,-3.0209723653463767,2.3281188335008225,-1.953778777575004,0.07644642753125153,0.2887096346918095,-0.8415592671760677
64922,16.100,-0.8067843137467712,-0.05231670744434498,0.49684531120961134,-0.31544693681086616,-8.534983462354253,-0.9816958840762898,35.16010857154085,-3.3544522710321587,-0.12269945179764778,-1.6379965812978414,0.06543606787591391,0.3160273061574702,-0.8361053214705904
64923,16.108,-0.8042608435518435,-0.04560785354867384,0.5096559672212767,-0.302217164138149,-2.465730382652558,9.34048686990547,19.90253599703807,-3.819402115682684,-2.42382976582165,-1.3823503109086914,0.04656300834867673,0.3403602826514366,-0.8192253339282883
64924,16.117,-0.8004656928958157,-0.041443739242234115,0.5220573696007754,-0.29153592200612694,6.290096171472032,-0.28232341214799367,-4.646141212504095,-2.968230532630083,-2.680928072469039,-1.1219992357450794,0.0257861853761581,0.3610850619893202,-0.8136017120833178
64925,16.125,-0.8004130972202327,-0.03923233148104688,0.5277544011078388,-0.28155814688298836,6.494027356787871,-8.61483788662306,-5.756751651278026,-2.0781186291648877,-1.0314468241468133,-1.5637717083869571,0.016224862754485526,0.375445862860447,-0.8045413754489453
64926,16.133,-0.8010772004560127,-0.040061757986142,0.5321908725685007,-0.2710041505427452,7.270843083665258,-5.903339403092379,-5.320980043163386,-1.4877529731522208,-0.9363349113551797,-2.1310837228178645,0.006466530708001285,0.3896140538253468,-0.8062252414506583
64927,16.142,-0.8016116848121179,-0.04201049254942289,0.5357522283110574,-0.26196063663873115,9.773472690323949,-2.0818594603187304,-7.716450362883073,-1.0243410752323012,-0.8178207082653984,-1.9789338236477862,-0.001854581194880735,0.3925214569319975,-0.8016090288421365
64928,16.150,-0.8012540391123517,-0.04202359105384362,0.5392838143264977,-0.2557321845340253,10.83806681173879,-2.113749775025782,-2.360464458645556,-1.0166475766144025,-0.797056347283775,-1.1400506781216089,-0.011620302310842191,0.4015545561334706,-0.8016085392036175
64929,16.158,-0.7994266730078251,-0.04114454804891292,0.5443124292509148,-0.2508945994087134,10.161867875904417,-5.647061865896628,-3.8476614742042905,-1.0878074608240877,-1.1788769042870646,-0.6422595403191322,-0.016281410140049548,0.40104168763480835,-0.7965043856600271
64930,16.167,-0.7976971394865351,-0.04410582401704493,0.5462796916859637,-0.2516196502546363,7.186953603226477,-9.04157423881877,-10.37330586494573,0.5660713527791934,-0.7776979795527108,-0.12935902183717218,-0.026280569871676297,0.4105747733574364,-0.7989439795431925
64931,16.175,-0.7954778390376199,-0.048847015864361194,0.5478017887351294,-0.2544448405839231,4.973324791468009,-12.72068649473592,-17.70000065960698,1.210068005132842,-0.8136662373815474,0.06809353489302511,-0.03216936257127463,0.38612820124363323,-0.7922509983633135
64932,16.183,-0.7964143172919198,-0.051800670844063076,0.5449667834101101,-0.25700609076866043,1.8583883378074926,-10.142241012886602,-21.678087292067097,1.0679396175755747,0.5114813950553327,-0.003341825042077023,-0.02428637547158488,0.39206480069882144,-0.8083015611440079
64933,16.192,-0.7990516623329275,-0.05331394685880739,0.5392466219870511,-0.26055161613176836,-3.697791028818896,-1.5484070561939391,-14.757401127672873,1.0737689851351588,1.4189182982842592,0.23216508361740418,-0.011116528387146054,0.37764544538447997,-0.8051390593358688
64934,16.200,-0.801885687789101,-0.046526003245600654,0.5348494154473264,-0.26220369474254945,-8.757593592129552,3.2167636951983423,6.611101436813274,-0.839882581473766,1.6577167649299407,0.9511598769128761,-0.005491919734336327,0.3876656356507557,-0.8072636312246946
64935,16.208,-0.8046027660709165,-0.028399264001646635,0.5349336408360906,-0.25623011247126926,-6.146952279352834,16.700750056810556,8.267592762270576,-4.286676955335041,1.440545414483097,1.0173078235409065,0.017885910677831785,0.4132356964701025,-0.7936104008282259
64936,16.217,-0.8075380236579336,-0.014792776429696399,0.5340544504175394,-0.249898695677589,0.8892981143174199,16.16318842104201,-1.2724935372985908,-3.399763747192386,1.3393635831427657,0.33980714736099565,0.031010051665147087,0.43319058751556055,-0.7800290874606134
64937,16.225,-0.8077498334370241,-0.01262198526649985,0.5364196454681474,-0.24420248980348172,7.203762942284461,13.983577832496668,5.763457291502402,-1.2972025545053438,-0.2978089671787701,-0.8208285479253923,0.015148211349289616,0.4498001566430206,-0.7817280178316972
64939,16.242,-0.8044731526536105,-0.016295520780572254,0.5460786991104127,-0.2331425680563934,31.003765286199176,-14.377147742268923,-24.172762011376864,-0.6340940948879878,-1.2799048720097501,-1.195442393919937,-0.0005205593113128995,0.4502404176320965,-0.7717846658971896
64941,16.258,-0.7951258201889313,-0.05828693267957769,0.5446811397875996,-0.26019227411160284,31.10085908981022,-36.24657669280051,-28.784366621454502,5.887155862473565,-1.5754096047622155,0.09902095349552834,-0.02324503874610967,0.3672330087725643,-0.8230648550619052
64942,16.267,-0.7824820304316188,-0.09061489056489351,0.5448534246307838,-0.287481406925093,6.110355460761878,-8.156001851751276,-21.73033193267931,9.912068299143215,-3.275643419968723,1.7376872299158541,-0.038782806414929094,0.3006770720438121,-0.8429839409861064
64943,16.275,-0.7693157747199115,-0.12452350487306316,0.5386757194471314,-0.3201181106706496,9.209449024736148,-0.8806771738655077,3.162576407639029,11.368634446232225,-2.1831216585790183,2.4242542518318815,-0.05575098296295698,0.22707861348729255,-0.8707557491428664
64944,16.283,-0.7604862433322342,-0.1464692801147822,0.5288116853066052,-0.3472256113368819,12.28977228437751,14.7075787798325,42.32901716610437,8.59162896062374,-0.14338434120823604,2.498243576086141,-0.047137319588427234,0.1629441464104076,-0.8864067917748003
64945,16.292,-0.7557769839422416,-0.1552636113962759,0.5221381825775046,-0.3634089704644281,20.066889259449606,36.73147569115096,42.47381098870082,4.394826074369588,0.4633182491843061,1.9676914235944092,-0.037089646632162916,0.13832721507879903,-0.8950259007223581
64946,16.300,-0.7532590141435355,-0.15871979098550273,0.5176257011492629,-0.37346019743844455,18.57861214777735,26.218325926908847,59.3067662264044,2.3823529945668622,0.6176072197965521,1.4135603794495053,-0.03268402132995046,0.1180754872181916,-0.8975451767292366
64947,16.308,-0.7504311033507842,-0.15769205716799667,0.5172133976329917,-0.3801008754775337,-1.520712622214037,0.9503608614999359,43.23328952653421,0.795847195672452,0.07324089254286617,1.5557201826825284,-0.03342152398115729,0.10537446532855663,-0.8963886084461269
64949,16.325,-0.7449125034023724,-0.16067030037722999,0.518605557484037,-0.387735338340694,3.088009105477278,-22.974662673467012,17.01761878836983,0.7907121473033575,-0.44288722080215664,0.7701721931761814,-0.039747601672522566,0.100759268596978,-0.9013214144137149
64950,16.333,-0.7394556860061078,-0.1696763369009636,0.5212023831711226,-0.39084946578682894,11.55672826292433,-8.7292170329199,-8.13887110447419,1.9703846611241485,-1.8354156231723888,0.02793088273327274,-0.061022691898508855,0.08729304277037464,-0.8934225307727216
64951,16.342,-0.7334921565651277,-0.17968809934287414,0.5230405108707927,-0.3951329740732906,1.4027856548160018,5.171639341596863,-4.282832734064521,2.3888107397796445,-1.838840038652632,0.13400004955110822,-0.0692629347273169,0.06440966901870851,-0.9072406124223271
64952,16.350,-0.7272564627123783,-0.18748152689680486,0.5266176125919533,-0.39827453423922693,-5.640500563660328,7.321839671859235,-2.9079731384148717,1.7008719187925205,-1.987801502832446,0.30526964181411737,-0.08391959886685293,0.05487892547380901,-0.9053974610605027
64953,16.358,-0.7215803848761069,-0.1936801230488238,0.5304272026050122,-0.4005705191779134,-5.457916995274783,10.804007741867467,-3.2947336686536737,1.2699368756769687,-1.8725098435870773,0.3282685019114928,-0.10247073045280733,0.047070028620208974,-0.9062487383866872
64954,16.367,-0.7167247448749228,-0.19998067390035484,0.5338436156106992,-0.40165204371698754,5.880382026539078,6.497523657728417,-1.357645531416644,1.1295191765209116,-1.7386605547294447,-0.002098835854073727,-0.11932787260474438,0.038512323073740695,-0.903678135365479
64955,16.375,-0.7127713438636819,-0.20610902400464523,0.5355454842850291,-0.40332011585405414,10.10424299504216,2.327733306441928,-5.913659033131604,1.2985377669215579,-1.312706232689599,-0.041310128758582795,-0.12667861077107925,0.02969408446691624,-0.8976490376556657
64960,16.417,-0.7050693269398134,-0.2376350497577848,0.5106098527831388,-0.43091113419826493,6.945951980271294,0.923008464929906,0.0386354837036425,2.352664368969157,0.32133438305822204,0.015518982464262844,-0.11687463155725056,-0.06694467374908515,-0.906370550032695
64963,16.442,-0.7027558788999277,-0.24376832201911044,0.48720776211631095,-0.4575366393909825,12.160023921626264,6.190609645965083,-14.551221298942814,2.2930129175733,1.5467218825758444,0.8521011972588027,-0.0685577154019076,-0.11921593038288987,-0.9010381212108561
64966,16.467,-0.7127710006323212,-0.1898897002326503,0.5274961458389356,-0.42148216869545274,17.046587552700693,28.778073059079073,-16.78132102123763,-6.103049123343757,-0.5893876734519938,0.5113227176846489,-0.09048525857897456,0.037329108836118036,-0.9113699470149071
64967,16.475,-0.7231513050666116,-0.16890706307268924,0.5373879480612509,-0.39967084870319675,9.247890228656312,3.9296650710304695,-15.924308615673308,-7.827226527026141,0.7976157230232103,-1.6451642419772181,-0.08882569777683932,0.09489293447364752,-0.9000999796418206
64968,16.483,-0.7359851861795469,-0.1510308614992561,0.541035580517712,-0.3778835603898549,9.469700560715133,-2.116290323633607,-2.209285686309182,-6.7897816636916195,1.8392474024253038,-2.5448864181873407,-0.07784905023906052,0.14273457774891485,-0.8978691694345992
64970,16.500,-0.764016855505653,-0.12393618944101428,0.5377099294114898,-0.33434427954189055,1.7149497733968684,-9.970245247223739,31.020140657135375,-5.590921165293136,2.555371016694765,-3.409261338061024,-0.05153200649242888,0.22324735811451105,-0.8863809491803778
64971,16.508,-0.7727801784257387,-0.10885261718838839,0.5419502478065502,-0.31185226063945876,1.6431660972492372,-3.670669471920789,41.42150392648958,-6.280342246610053,0.9132164604122642,-2.7281136119698273,-0.05281766130200113,0.2566239736097292,-0.8715777385524403
64972,16.517,-0.7798394848619015,-0.09267920783135433,0.5454550667457069,-0.2928134430785471,-0.22430501729616434,-22.202620959958544,37.1807288350826,-5.926395512936927,0.9700038140574334,-1.8495648470100363,-0.04480907985580194,0.297343461014457,-0.8606048648494291
64973,16.525,-0.7874107403310118,-0.08101569368542266,0.5441203732708142,-0.2781255162326308,16.35226430821279,-24.353728034789828,23.369771338249382,-4.187170755453772,1.7501671016683187,-1.7689715043970746,-0.03971401061903882,0.3341743096920528,-0.8533256124643029
64974,16.533,-0.7913919829362305,-0.07043960393626236,0.5438340088248546,-0.270150999233858,30.307440850226058,-24.05749593406162,26.974002455024152,-3.0950230045483322,1.1205575898271378,-0.39546429199971844,-0.0321964306539321,0.351697191285865,-0.8417337267432015
64976,16.550,-0.7819772328462922,-0.055298792538801815,0.5630391840177449,-0.26161140669787003,4.56403481643441,-26.75797160676628,13.581474992583601,-2.532296560860156,-2.006986031811203,0.6641387161964385,-0.06890997615127598,0.3847992206543554,-0.8207394608910036
64977,16.558,-0.7786779775556527,-0.053713745437285576,0.5709539076610692,-0.25453305511758617,-18.934396442548284,-13.221400107329204,-0.38659801818365586,-1.7084143086014705,-1.9090619379218552,-0.7850401606968267,-0.0730724725226058,0.40212012363102617,-0.8179890313423552
64978,16.567,-0.778949612300547,-0.055524992233126305,0.5748588777208633,-0.2443189461336311,-12.144611862568619,-0.4015471336514995,-1.699603241826095,-1.3073933894744239,-0.9475817710178693,-2.119530674644682,-0.0855837776436021,0.4152379847324512,-0.8043088282907005
64979,16.575,-0.7790137925897516,-0.06008709497708608,0.5780675155822297,-0.23529768252308664,-0.4073307330151542,6.830652432621943,-4.734530805732764,-0.5888821363722135,-0.9700725144621285,-2.2705142069366495,-0.1063172368637713,0.41110755036679164,-0.8085700750447542
64980,16.583,-0.7785056592829387,-0.0634941456241772,0.5806101355582547,-0.2297592270680726,6.437082070299995,5.776016256959178,0.7787747742159605,-0.2688560661664914,-0.8276034617173145,-1.4441363032093635,-0.11000922689557624,0.40765683045100704,-0.8017667421393169
64981,16.592,-0.7758862620570909,-0.06556104920833074,0.5848103119725828,-0.22737448447068323,5.81653964697624,-0.8339945049984143,1.1841897601893545,-0.13873771354008937,-1.2827609611646134,-0.5178200715688122,-0.12152548946806284,0.40736702016904336,-0.7922969672729858
64982,16.600,-0.7716265133809547,-0.0691959382508589,0.5894284290695196,-0.2288636558778468,3.54400820008111,-4.702172424264087,-1.9729608868466095,0.7063279465643675,-1.634961891763288,0.07055834689899401,-0.13907340099839746,0.40471429467842734,-0.7992227546240627
64983,16.608,-0.7668193022520451,-0.07419013865159525,0.59338480063132,-0.23319189394203438,4.152770162056905,-7.358369733963569,-10.265482506633619,1.4031005280422444,-1.5929294326118482,0.42636353701026647,-0.14440569721777705,0.395723354676069,-0.8080785234388232
64984,16.617,-0.7611288741683976,-0.07927838643787143,0.5977036126203146,-0.23905682548628612,8.64483496232455,-9.573778173374965,-24.753342037782254,1.6397039800395312,-1.7845423967483856,0.7450636052935953,-0.15198536911850283,0.3769118608468475,-0.8055164074557396
64985,16.625,-0.7569394471940141,-0.08451995144898164,0.5982112918094352,-0.24908292081226477,12.484440017550902,-13.238665686198695,-19.106319232084946,2.453623726027407,-0.7736891504634397,1.3204131218410267,-0.15294457055600086,0.3666768099859231,-0.8094760442117168
64986,16.633,-0.7708586484647699,-0.05385439517690105,0.5844907936636067,-0.24748163634840895,31.77025959368641,33.023869965699774,88.35744211656439,-5.2457293860588265,6.304914653667633,2.9884311368790937,-0.10242064797988669,0.41036459711824497,-0.8063592329805744
64988,16.650,-0.7688673671031799,-0.007993509188492743,0.6008215679966002,-0.21861500187495037,-1.8673598938079532,15.739078818111262,-16.92446571679876,-6.735510522229498,-0.4637142696915051,0.7413113107528589,-0.10486489154344845,0.492859137479115,-0.7500648547605735
64989,16.658,-0.7683418827465847,-0.012877120850791788,0.6047221876228158,-0.20927495495807344,6.148184492153031,15.555792149271982,3.6272411160730194,-0.657462315076813,-1.0609660642687988,-2.3783579513196793,-0.12148908826812839,0.5072386757720704,-0.7449417447684831
64990,16.667,-0.7625227826210789,-0.014166998204125217,0.6152865263769344,-0.19945122863672113,36.9608889108996,-52.80179860562978,-44.20702286808595,-1.7027891169422809,-2.8983991644319067,-1.6589662055175505,-0.1474288332334483,0.5091250262368537,-0.7311301811388526
64991,16.675,-0.760538597151316,-0.021203674244393414,0.6186070114897977,-0.19610408404035748,61.26935963700359,-79.06976814612626,-44.560750314837925,0.6364838129799439,-1.2318696837150898,-1.538380000464549,-0.15300083477068616,0.49305877391852765,-0.7409975240781301
64992,16.683,-0.7614240149004902,-0.04131250495327557,0.608729919402679,-0.21903112037176745,29.268832912753794,-25.30556921564786,-32.59156514520378,7.545886575420474,1.1073503600279306,1.0628106293829795,-0.1485037075201721,0.45069004733208673,-0.7643748828502617
64993,16.692,-0.7532399877429693,-0.06246674305044373,0.6067196115846583,-0.246208732168871,17.975188625111688,3.9673497682193632,-13.11430170263781,8.035085168339148,-1.6267959377860755,2.2518786016666517,-0.14858923843025437,0.39519877528876374,-0.8005308732125438
64994,16.700,-0.7430139738381845,-0.08119104114556372,0.6075982855228297,-0.26863092329180416,18.313037401178583,13.330848526314261,-8.196797783865067,6.7659429788558505,-2.4118652859978678,1.9201666868580438,-0.16683988763165505,0.3564452723915914,-0.8142248506771101
64995,16.708,-0.7306170642686576,-0.09965798033515863,0.61078029764647,-0.288469097758937,11.16094484846305,4.995989025131806,-2.727601864214528,6.231942377607175,-3.1353882713344294,1.6844462879809567,-0.17702644595217226,0.3162351402189331,-0.829599459685161
64996,16.717,-0.7171511135431844,-0.11719016419158858,0.6164367281441081,-0.30325979943854464,15.371600090564867,-2.7503967844449626,-8.227639370632453,5.183327453658948,-3.8236621604584555,1.0804227850359058,-0.20214732600380325,0.2815945053544557,-0.8354911820459658
64997,16.725,-0.7048222951373215,-0.13065064646656713,0.6199424576248194,-0.31910388604547885,14.933252787694414,4.881467852688917,-0.49195756157262116,4.762841279418478,-2.9165709928950663,1.7123901649203916,-0.2180167633029153,0.25205265849861197,-0.8354583623458077
64998,16.733,-0.6934747951824722,-0.1364420784915372,0.6204243358664517,-0.33992633191356325,6.988105271408364,14.34260743664148,7.250721388933789,4.4177319950891425,-1.5462563297015206,3.526769498395302,-0.22871657522979658,0.22817282497122868,-0.8451415354231211
64999,16.742,-0.6857463276887032,-0.13573610709652317,0.6169827261470227,-0.36146922265654474,-3.601767758035694,9.898649265247446,30.74153844018161,3.647718844252835,0.2414267383453119,4.178668865407328,-0.21014463754074758,0.21427570686646377,-0.8490330578779834
65000,16.750,-0.6788873909252912,-0.1385767145180001,0.6163489989159762,-0.3741955587274143,17.95076682499192,4.764253055990115,47.151426880832595,2.6454401734235335,-0.7350240247156948,2.233862515417859,-0.21741907830021315,0.19333372475620295,-0.8603961322125069
65001,16.758,-0.6773531610271,-0.14036371413055723,0.6139539511122757,-0.3801989859477484,51.61978200425589,-1.3968316952596156,29.985455307261056,1.455023535044684,0.2355294948592894,0.7519420912357335,-0.20888584490391365,0.18502015702599064,-0.8577129735091351
65002,16.767,-0.6776846669165298,-0.1418346251419308,0.6103463142634599,-0.38484257560993745,38.864524626173996,8.807320195959216,36.88520230168157,1.2481786471055965,0.6568167659370404,0.37131358824603644,-0.20790047725848354,0.17331091055661568,-0.8597179849473316
65003,16.775,-0.6728624116424169,-0.14605245348650023,0.6132153091597086,-0.38715867605090226,-0.7980404371459909,13.076426904136298,33.850767307438204,0.9325843724759578,-1.4573308814417372,0.2949412061564604,-0.2132758649491122,0.1762358799962308,-0.8587509522756462
65004,16.783,-0.665157283910995,-0.15150429993552164,0.620729736032154,-0.386402419203928,-33.80545425855565,4.74246766892992,23.975952902357854,0.34632723724023395,-2.8828642302391376,0.06073777947759145,-0.23773344914321487,0.1688637308651138,-0.8488836310334783
65006,16.800,-0.6535855291889511,-0.15887048200654227,0.6395097820569675,-0.3723081581637149,-23.303117284738445,8.897599961877875,12.042468289755208,-1.1202120406654643,-2.9544237430984386,-0.7844138353276484,-0.2863912344742669,0.18636084850391144,-0.8321670963730636
65007,16.808,-0.6509347781508273,-0.15719024185544767,0.6484217136314402,-0.36211106549016975,2.951123690776462,1.875776748066177,-0.8685633444768103,-2.5213216836190013,-2.0303517232117736,-0.7523321506050242,-0.2979216665563489,0.1977744292470014,-0.819467348709752
65008,16.817,-0.6502528752407677,-0.15400382513975625,0.6570097451022971,-0.3489874137043523,15.480522525955884,5.405276503846013,-11.014234004865873,-3.260871841608153,-1.6740969048628072,-1.1552849759274448,-0.3091975586704464,0.223847989854096,-0.8091376200559411
65009,16.825,-0.6566336359173727,-0.14966477023647723,0.6581214299885002,-0.3366138858126413,29.572644179037894,12.221370412766568,-4.4596258412399346,-2.958977669337259,0.7482943247479495,-1.7369661819225142,-0.2972392880363826,0.23434123159764808,-0.8080582425660515
65010,16.833,-0.6865372605191369,-0.1509143198645881,0.6183292712886909,-0.3515115506584161,38.09039170148719,-92.36742806283323,109.48044332219156,4.6903201115567805,11.422595060764637,-1.7773662023320378,-0.25488925021023584,0.20638951814782017,-0.8338859919971606
65011,16.842,-0.6954376074329642,-0.16695426265975336,0.6250549446473975,-0.31272851568012044,78.74491773119998,-116.46805627996443,-23.398450764794074,-4.04027425783501,-2.580475615261724,-9.262370904952597,-0.27028909562332987,0.19953257969309404,-0.8295918171281589
65012,16.850,-0.6880485390472031,-0.22081918646554802,0.5842283636392254,-0.3694662554593264,-5.091388069906921,53.82008500986305,-62.033014883971205,20.895623000933014,3.939914435117596,0.19147520632618548,-0.24135131427924458,0.052943940609207596,-0.8589772411958315
65013,16.858,-0.6803802060133056,-0.2345929409894767,0.571482727875396,-0.39427962037530684,-23.67967895894169,30.99737211495036,32.99370408176938,7.303572899575306,1.149588705079835,2.1140490542830586,-0.23496315220824682,0.008310050522333268,-0.8681967145276556
65014,16.867,-0.6722605856020463,-0.23687046206299547,0.5791462580171083,-0.3956610937062655,57.75384908303128,103.13931691233418,-9.889813688427559,0.30335856201292116,-2.5000083684928134,1.1172898338104966,-0.24454350611856485,0.010931156613613286,-0.854798151209969
65016,16.883,-0.6561047586897869,-0.22558336320785913,0.5798342347518028,-0.4271193651407523,34.91137394563101,20.67846649600195,-6.870984849529017,1.7261253159175078,0.2768799992822962,4.094188851297924,-0.23744407439022255,0.004116377358001809,-0.8591943206219833
65017,16.892,-0.6450960465806225,-0.2180288006727951,0.5920164432939061,-0.431081272653855,37.54315954979418,-18.775930881138642,-19.203215678978026,-1.2683223571344973,-2.4299406321407706,3.4782712675317606,-0.2597082898043146,0.02823449325731963,-0.8484338849163185
65020,16.917,-0.654429417617408,-0.1728001622251671,0.606422613310408,-0.41726952363870473,55.23586442812219,0.19902781069486905,-18.647865193120726,-3.6383233796073418,1.021916534996641,1.3639212481086624,-0.23094328835450256,0.1016743034846768,-0.8384337286568817
65022,16.933,-0.6733492965046127,-0.1294433846096788,0.613530807762855,-0.3916951403877675,-2.8690201244802456,18.603443218364788,8.249458763949628,-6.005578989830614,2.4848374590041966,0.3652871084184081,-0.19334578868271998,0.1937166023909283,-0.8383155684422474
65029,16.992,-0.7190325771743168,-0.1468416136614762,0.5794127738290602,-0.3545568092465143,-7.49072774580839,-20.579832107965686,19.980278573611397,-0.12740595502392468,1.3422831865695186,-2.000202429579851,-0.13816171866715382,0.18176321810529725,-0.8400839876675199
65030,17.000,-0.7150824806744548,-0.16015985399604438,0.585026133279593,-0.347491424901913,-6.633794627409154,16.028321584552682,-2.6801006778233436,0.9716840800060673,-2.879625402644118,-2.53018977834635,-0.15770104557556944,0.16734971823527717,-0.8382856779738748
65032,17.017,-0.707077321426218,-0.18087722912037238,0.5959113356422945,-0.3349847303437551,13.43302236252586,-1.707499436667536,-10.120598182969132,0.5961807855444926,-2.6126803864612373,-1.9814259996048533,-0.19849441273144447,0.15707133708637375,-0.8333868763944635
65033,17.025,-0.7066225188246755,-0.18768930174364132,0.5966370626441558,-0.33087997428102095,18.817794381225212,-12.253540763166432,-10.322760890234516,0.5280291211773914,-0.9071629443968021,-1.603950537465748,-0.20630668857378948,0.1499913404149489,-0.833455109830763
65034,17.033,-0.7066379832110196,-0.19296220309507056,0.5959659980067966,-0.32901805129798395,14.100548663567436,-7.0358501237873385,-7.245164311484326,0.6804885368022564,-0.3944143733936492,-1.1098190303907294,-0.21169586047056974,0.14630936466041541,-0.8293459351817828
65035,17.042,-0.7059137653016722,-0.19750507104264556,0.5948876013372926,-0.3298275983680233,9.213513520756758,-4.5954837165831215,-8.185195957869654,1.0070915198867942,-0.2339172458010734,-0.5143260645455581,-0.21605053259316467,0.1373195957469213,-0.8384415554403971
65036,17.050,-0.7052949926274964,-0.20093520340109594,0.5926830475763426,-0.33303276494116746,7.242403977359258,-7.825794597129789,-1.772644347481821,1.2476852998434464,0.16297985840310772,-0.014921678166729308,-0.21992885807651963,0.1353969415273448,-0.8448155822989375
65037,17.058,-0.7052314034531562,-0.20191429833026872,0.5906664228669434,-0.33614351192735586,2.978022606440308,-10.010479650957103,2.083209777284889,0.7779795068983892,0.41659885346544034,0.28277447134956774,-0.20382623631193286,0.12561971798846067,-0.8423503843480391
65038,17.067,-0.7061521182795093,-0.20030304308454197,0.5893614478028583,-0.3374625321782447,-0.5549035424544745,-7.208100932453251,0.41877691430850217,-0.01857112145239895,0.5442665059357472,0.3051884467739681,-0.19137626037581912,0.12586268471585238,-0.842050456506866
65039,17.075,-0.7087714206405555,-0.19734559939670965,0.5872514146703864,-0.33739229933350895,-2.5899855837385997,-1.3541844452572747,1.7610141832901345,-0.46161025890545115,0.9753006908506048,0.081852132035941,-0.19894988648165968,0.12512441582276282,-0.84086649358433
65040,17.083,-0.7117913276982343,-0.19470172935361812,0.5842690286810498,-0.33774849300092813,-3.012955173706142,1.948972455651534,4.156867719113536,-0.29574029891345593,1.1615908944603348,0.03672024839591264,-0.19038468253936772,0.12441425306241638,-0.8454710954886763
65041,17.092,-0.7138932782551852,-0.1929619883594947,0.5815279917762367,-0.3390387191621518,-2.5482295106260944,0.7696544690121015,6.769082291297678,0.012697606390699466,0.9747510759419595,0.152920999972312,-0.1801408375511097,0.1397843956867675,-0.8431551161520311
65042,17.100,-0.7144786380814104,-0.19140440944318984,0.5800578632844818,-0.34120009234007875,-3.5125171523201906,-3.4671514483611934,8.321196334092006,0.13449256302812,0.5601346189002457,0.4622885875238784,-0.1754741076107231,0.1276079531844378,-0.8495408430661351
65043,17.108,-0.7125463638158523,-0.19102486721232342,0.580467230126844,-0.3447389944119916,-2.9794697635401963,-6.473896244037865,6.889717705369349,0.4909650576836304,-0.13351904019343702,0.8267277754831425,-0.17521479561774303,0.11907952485957693,-0.8529986563156635
65044,17.117,-0.7083253574732499,-0.19301354591819003,0.5822933686228896,-0.3492211217986213,-2.914048614793331,-7.496288339120762,3.158818044193652,1.0160908206777752,-0.8575066773920862,0.9156490626739564,-0.1811063005534216,0.12172990817246436,-0.8456874145884367
65045,17.125,-0.7023629958470398,-0.1981031155814081,0.5844279178025112,-0.35480330685427913,-4.793033579063798,-6.711956773625507,-2.1254995956678626,1.7508169333022094,-1.3532980941662964,0.8253933349797384,-0.19236526468543014,0.10680588198151059,-0.8392164589773167
65046,17.133,-0.6960295076339816,-0.2047245149692389,0.5861088341806623,-0.36070380087932574,-8.400922257361117,-3.595667154229167,-3.8648054927078115,2.1099060678237413,-1.4542984195152286,0.6764394491801623,-0.2015761946309197,0.1105405567349374,-0.8543759899948689
65047,17.142,-0.689871119821168,-0.21129282214656578,0.5876753389163213,-0.366156902673723,-9.437946804017026,2.037721610980952,-5.784828957337942,2.0383704997699157,-1.4192416503353784,0.5840218128227198,-0.2027835049380732,0.08540841472693796,-0.8574315916215787
65048,17.150,-0.6848079315887464,-0.21667267553451214,0.5890982813245984,-0.370208405428974,-6.719465243553075,7.331146730142952,-7.966313989742518,1.6008863455876872,-1.2175450811146127,0.4215125311752354,-0.21624635014598997,0.08048701246929561,-0.849457448078711
65049,17.158,-0.6816654603627822,-0.21979292180054283,0.5898409920120905,-0.3729757040572081,-2.352812254217573,10.86496589063949,-8.723445997342136,1.0074812755150626,-0.6913776292569086,0.31983174003684417,-0.2291929959107888,0.07193399127828451,-0.8478462508329175
65050,17.167,-0.6805377683972306,-0.22075568921175345,0.5891175763758462,-0.37560052272409106,-0.11941827948269602,12.209450247680076,-6.400756445499146,0.660000008628848,0.010149434328418068,0.3465405550676621,-0.21941563771303826,0.0697496329094875,-0.8504994404369228
65052,17.183,-0.6808843260480534,-0.21827831928176547,0.5887389564673425,-0.3770113406933017,-0.8048741081649342,11.495142810751588,-3.5206978657581236,-0.08852661632558556,0.20809689135416742,0.2564440296234037,-0.21943081656757435,0.07852219905060441,-0.8470393851039857
65053,17.192,-0.6823268559633296,-0.21628347063560358,0.5884295790353576,-0.37603477562226556,0.3291451500317477,7.106608750537815,0.20835611241854576,-0.506462347105533,0.3908514240749864,-0.031214924780047858,-0.2169079920675639,0.07641396145798666,-0.865593510244294
65054,17.200,-0.6841862943686899,-0.21408328887735867,0.5879372035185038,-0.37468293895016874,0.585208623139697,3.7002666911012905,-0.6723823719236351,-0.5986250102240894,0.46859226322630065,-0.11008762006424776,-0.22088183632946592,0.0839084551634729,-0.8501938085041384
65055,17.208,-0.6855401240397675,-0.21296281532493408,0.5876408895383031,-0.3733092050339105,0.7422558875295124,1.1646525778379933,-1.1383527312144681,-0.4163679167520952,0.27574538830560097,-0.2101773208625472,-0.2091319604704195,0.07539759317157649,-0.8572633164870428
65056,17.217,-0.6867939873253238,-0.21267393915982918,0.586862331976427,-0.37239282737885065,-1.3852704647412821,-1.657167507684474,1.19209070043947,-0.16713030370165313,0.28018587916857207,-0.26921416763358724,-0.20475592498916337,0.08709629984117286,-0.8530375237170001
65057,17.225,-0.6872641159441755,-0.21359196906855174,0.5869031726467581,-0.37093283977299696,-5.246412501672689,-5.16066449235237,1.2361195216174246,-0.07854207476696322,-0.09258739893817071,-0.4154170555232464,-0.21426235466166177,0.08857752198280916,-0.8564901630176261
65059,17.242,-0.6855244706637902,-0.22000320465292078,0.5878805116191966,-0.3688513170939307,-5.969309580468673,-5.05062230173463,-1.5092168770785144,0.386067154833808,-0.5468898042231677,-0.5262359169024943,-0.21894356991038552,0.07656792543169189,-0.8468024762460197
65060,17.250,-0.6838614976496976,-0.22445853501357477,0.5885130397030968,-0.36824478297905916,-5.574709413895086,1.6982553944446388,-0.4113956391431176,0.6817020921083536,-0.7576057670542002,-0.5555976554314039,-0.22966642240017127,0.07878624537755348,-0.8512334992113492
65062,17.267,-0.6788344690666325,-0.2313960402752177,0.5915891779267847,-0.36832306567995987,-1.0908565935995755,7.270470167691896,-1.9261692613366752,0.5786524876934306,-0.9153151318478261,-0.18310623536370355,-0.23629106381502205,0.06483408609616664,-0.8437609683109709
65063,17.275,-0.6775911843985777,-0.23149773676287322,0.592771721758325,-0.3686470813429443,3.5363774878594483,8.676428751624574,3.1169902546582438,0.0330634469702304,-0.3496519204841434,0.20843941108951372,-0.24333263107054,0.07024727725291395,-0.8525551405882705
65066,17.300,-0.6773145798983066,-0.22490602221280526,0.5997576156576367,-0.36187434765434895,6.41180557449204,2.572700796919813,4.188055040351987,-0.8739261115426195,-0.32495314563681943,0.08195445312752214,-0.24851131244173283,0.08776898775786182,-0.8407748117023467
65067,17.308,-0.6796141512687874,-0.22167037143491708,0.6015771432568473,-0.35649935839218894,6.426082694263526,-0.9295124604690944,5.584415447045172,-1.5785779925687613,0.034547369418697314,-0.5069446289038094,-0.2482502026661794,0.0956001352998835,-0.8446424336871682
65068,17.317,-0.6831111985619216,-0.21826581580856852,0.6023626890017082,-0.35054003330197053,0.8317625626339056,-1.470655289377491,8.71085542892421,-1.6670824612477926,0.3449832915715241,-0.7386805849957306,-0.25117810529251877,0.11391281369681422,-0.8450557258714526
65069,17.325,-0.6864255470868839,-0.21533948816404222,0.6037244713589093,-0.3434612581152734,-3.451608589999631,-1.3917375770539326,9.916678044177026,-1.7902529900565292,0.1296682742161413,-0.9431412896738731,-0.23997245451564678,0.11754794589677585,-0.8393737776966659
65070,17.333,-0.6891008011845882,-0.21315247286745856,0.605162562129267,-0.3368744313752338,-6.333919199280891,-1.2810422268880945,6.769948808181916,-1.5703807385657202,-0.016313040009772815,-0.9139395655248028,-0.24729167936274254,0.13806137790660375,-0.8405282146885437
65071,17.342,-0.6895249161180448,-0.2121281831280423,0.6083949282755511,-0.33077580809936197,-5.345694383945939,0.931779495692945,0.26814986655198947,-1.3362636140795157,-0.7041598233285686,-0.7251504626224339,-0.255119098097969,0.13804498266250362,-0.8371445903350765
65072,17.350,-0.6879586314967452,-0.2116164633851945,0.612618542088865,-0.3265423642689905,2.165800262069484,3.172676539447628,-3.0514580489175964,-0.9545183822512683,-1.106436140345591,-0.2834369662091035,-0.2570991640874988,0.14680466682611326,-0.8310076129104754
65073,17.358,-0.686786255592942,-0.20959075284742093,0.6157963877185509,-0.3243318737377844,7.003133139525425,2.8459049102222105,-1.1192614579852753,-0.8430148052426837,-0.6482710390475959,0.18758702513807657,-0.2646397383790967,0.1531826983592417,-0.8373578882179554
65074,17.367,-0.6867045704410756,-0.20623298810142976,0.6176012612497731,-0.3232235598727036,7.15480830766908,-0.5809853346386016,0.9410046330552257,-0.8467100533881234,-0.10449495603539848,0.40850240229321527,-0.26834471904204116,0.15630964641599826,-0.8275933106121558
65075,17.375,-0.6871356442708928,-0.20260307716976048,0.6186145439252612,-0.32266491215796955,5.412587452185035,-3.731642941610554,2.544239624079358,-0.7737507154604524,0.15441908440413146,0.46022622567403076,-0.2688439572601874,0.16826068852390066,-0.8250967151505245
65076,17.383,-0.687669248077177,-0.19935880636492878,0.6189821535582595,-0.3228438711670083,1.4538752488539877,-4.360269027488756,3.7545660594109496,-0.5556022612192133,0.2783512168767287,0.48241193562156404,-0.257560113683667,0.1714930345784439,-0.8372389982296882
65077,17.392,-0.6873450249613087,-0.19694649672792175,0.6198518698439729,-0.32334587292629385,-0.941466727110654,-3.380947547582622,2.2555728545522666,-0.3680429317049003,0.022550232679352522,0.5038224921899577,-0.26611802616668756,0.18197690761108154,-0.8342965014912531
65078,17.400,-0.6865558786858671,-0.19492341392057413,0.6207803507632454,-0.3244651664719767,-0.8858712190596227,-2.7778594489363253,1.2747742452564177,-0.19426237919953107,-0.06035372020861536,0.585450631200273,-0.26272986235299983,0.17169032884012808,-0.8274948995899172
65079,17.408,-0.6857339106165521,-0.19289501711003879,0.6216259877409143,-0.3257938728241855,-0.4171671890514046,-2.601463097513301,1.516215043664038,-0.1558076267909791,-0.03818478588994876,0.6194630051682121,-0.2571364152590328,0.18655931385445987,-0.8225161213807444
65080,17.417,-0.6847450458919118,-0.19100183873315524,0.6227295948700473,-0.3268797506729717,-0.5147602024060492,-1.4909784581303702,1.6212264722606133,-0.1823750091476586,-0.13055745367375385,0.5845682937730613,-0.2575990598901894,0.19000534941478744,-0.8283611195165802
65081,17.425,-0.6832828159964617,-0.18929210785484984,0.6243111287905325,-0.327915699130287,-0.009804959211454915,-0.532994059127091,1.0815698320774643,-0.1754040985765024,-0.293712033651208,0.6087217543837602,-0.26026960242749964,0.19075415810765567,-0.8317872838872252
65082,17.433,-0.6819486336746247,-0.1875384083980729,0.6256636314312437,-0.32912068714849735,0.5607331329494609,-0.5794339877853741,1.706402795960438,-0.14499608075958575,-0.22846364991254756,0.622123044689689,-0.2702632376581528,0.19223655133815626,-0.8354862006665841
65083,17.442,-0.6806078025907909,-0.18594314543312912,0.6269901666492387,-0.33027488043163283,0.9823420452164476,0.9270155665191314,1.8406937325008725,-0.1245009420770478,-0.237761875949931,0.5891953890100116,-0.26418645798965734,0.1875686556076843,-0.8293782893179186
65084,17.450,-0.6792851113976907,-0.18430532063194888,0.6281036354018272,-0.3317967893382796,2.7432130842951277,1.1276476414630574,2.3572629710095403,-0.059782764592713394,-0.18258924246005498,0.6443050797988229,-0.2634487858049353,0.19221312956087033,-0.83057350316169
65085,17.458,-0.6786426574030583,-0.18213568061469163,0.6284337552364554,-0.333679116336856,3.8432583216547207,0.7191953255421377,3.493876833794744,-0.05961482156851271,0.10825062434384942,0.6930120652184316,-0.26688064458185184,0.19219790540563453,-0.8274147361706925
65086,17.467,-0.6788341240560135,-0.179636380938569,0.6276401140670299,-0.33612927553892624,3.404599450676801,0.5359630630788524,2.9972497284197694,0.025962881119196885,0.46633985515423565,0.7172275499627181,-0.25833385816146714,0.2014774846010922,-0.8278210209528039
65087,17.475,-0.6793550439031424,-0.17738719510389053,0.6259481362113596,-0.33941042722647624,1.7284309226508006,-0.5702783356892357,3.2707039641187388,0.25035762542052875,0.6797521414690925,0.7477358805782466,-0.2536973061218788,0.19830135081203523,-0.8273276249168869
65088,17.483,-0.680177371697572,-0.17563693870814584,0.6233654839503417,-0.343403381187737,-0.8064882542735348,-2.024691154772423,3.693645847065326,0.49820054123899005,0.8581759001660525,0.724313180220351,-0.24238981849047417,0.19765325576149648,-0.8448596255139217
65089,17.492,-0.6807048125656805,-0.17486514897348843,0.6204947618480803,-0.34792152612837274,-2.955147343953177,-3.0671867928425396,2.8079175551016706,0.77249090090871,0.8034798232824594,0.6747825051855563,-0.23411267896930052,0.19762749180648195,-0.8394522310399363
65090,17.500,-0.6804287204550755,-0.17530764407619906,0.617676860875563,-0.3532127996650637,-2.975685644934478,-3.5819183445121228,2.356278972021108,1.1153452243161899,0.605169872196049,0.6891160744280006,-0.2397202596112083,0.19275293310341143,-0.841209233995299
65091,17.508,-0.679323466046026,-0.17695727051755505,0.6151322580273045,-0.3589123263757049,-1.9125656190336975,-3.339645504725258,1.327439317706804,1.3845329201503973,0.3530277326750565,0.6580057046207621,-0.22943733998194674,0.18350731548501834,-0.8478004103116571
65092,17.517,-0.6773634854255145,-0.1797812503712484,0.6127784558532279,-0.36518484999967266,-1.9427060874575406,-4.400023417636598,2.641305965862772,1.6805106685470885,0.11820790388090185,0.6602593171136449,-0.23357550388957266,0.16423330997829935,-0.850596622678719
65093,17.525,-0.674499239548675,-0.18319520003282275,0.6111345415661208,-0.37149006263689044,-4.104850580277776,-2.9466899085534655,2.807278724203839,1.7580183284202962,-0.1799781424083332,0.6885684373274338,-0.2320963197793848,0.14374095756802874,-0.85386232823427
65094,17.533,-0.67038210223299,-0.1860696222979118,0.6113483430343577,-0.3771195249953712,-3.1564698129579725,-1.3788062239990997,-2.3283414038950814,1.4618712044581843,-0.6456548546308205,0.8564473846841769,-0.23354632505895642,0.15181390074857787,-0.8572480052479752
65095,17.542,-0.6658169473794247,-0.18809748815729083,0.6116816578783706,-0.3836048447900921,-2.477006865004254,-2.0936607538946324,-2.789482390321528,1.4615758701404271,-0.6141326199180474,1.1625008348260437,-0.23991188052551424,0.1400753770575954,-0.8531817601829093
65096,17.550,-0.6587191644293207,-0.19164608186828905,0.6142687667943022,-0.3899163036589754,-4.245368978496317,-4.3585844751145455,-1.6032487751128206,1.5864822959211857,-1.4937140470190429,1.2516685466602484,-0.2440524689759823,0.13422660926722937,-0.8554252923479888
65097,17.558,-0.6494816618022975,-0.19623526833708865,0.6208702519399875,-0.39266451418376636,-4.771592066854809,-4.396193170249885,-11.852217921811615,0.9466896394793199,-2.706413168855784,0.9263173220899356,-0.26603667417896393,0.133237176024698,-0.8528408770433868
65099,17.575,-0.6471907030856516,-0.19581865211861013,0.6244492517916044,-0.3909761901431549,0.8619002182957501,1.0846847400816342,-18.275909990794784,-0.2674284206406233,-0.47183625283716607,0.08868701783588807,-0.2770260530603124,0.1305481467792888,-0.8521695477572139
65100,17.583,-0.6482593050566415,-0.19438352129089878,0.6259840965971716,-0.3874517142373413,1.6138021122556707,6.213860947608471,-11.536184248552583,-0.9418755476621422,-0.10914260047657283,-0.36575715708259215,-0.2762777582761211,0.13935467449747033,-0.8557862079529194
65101,17.592,-0.6507567209061007,-0.19141841712150778,0.6254407180190185,-0.3856145588876157,15.18690044848723,7.878547404891244,-17.216349411426147,-0.7986118146822868,0.6467638682555006,-0.10398040207935538,-0.26410842686737296,0.1439523048960845,-0.8471656658392214
65102,17.600,-0.6548993976598972,-0.18640105352372366,0.6243207882720911,-0.3828641789476585,10.722174563025689,2.887834796972047,5.0055517490560995,-1.2781583757185597,1.136138455877521,-0.11870632081958143,-0.2694612363592298,0.14275152432549737,-0.8513453862958966
65103,17.608,-0.6567492021964569,-0.18826308345060955,0.6224238439426287,-0.38187177863213256,14.443963279655682,-24.172208628496218,17.82634351627974,0.2376108931922119,0.35397906991499983,-0.6990103243545934,-0.2704109838009561,0.1413159746495686,-0.8574600834623812
65104,17.617,-0.6577539030795047,-0.20144248349907007,0.6146736846645932,-0.38594946587118983,25.308241199462373,-30.94243952560078,19.92828768773077,3.348894128961232,0.34028020624354244,-1.7931880184356201,-0.25990075868636175,0.11764748845024105,-0.8602131148773785
65105,17.625,-0.6609791217684111,-0.21240281412997408,0.6063642872979927,-0.3877034900868519,31.655193800660186,-23.136280838467464,9.220971261238644,2.5989497698219095,0.8447304342566684,-2.0624687694337562,-0.264292704948615,0.09860708095999937,-0.8608120079687012
65106,17.633,-0.6617346185417711,-0.2243453558583921,0.6005950029404471,-0.388667079093551,45.111342680179845,-20.557656412772065,3.2278669205544865,2.529264138790276,-0.046674686972293614,-1.971360923000704,-0.27134519005282676,0.06299223700822656,-0.8671174311439283
65107,17.642,-0.6635634582688195,-0.23443950875676692,0.5943547681175539,-0.3891838424191571,71.8643379305389,1.0557659041202374,9.21782652587353,2.1581284402240395,0.329315461431599,-1.8970837607921136,-0.26841525846184777,0.050052932746657036,-0.8671666461867485
65108,17.650,-0.6653179393536442,-0.24027090288198774,0.591349772069775,-0.38720457109326606,71.11703925087129,18.47293888872966,13.42231259154377,0.8265542639051177,0.06585492632983261,-1.4946273748893972,-0.26130186271908007,0.04130027511623319,-0.8747459452919111
65109,17.658,-0.6661708941483547,-0.24256134774369545,0.5946341307944364,-0.37919728752285287,36.6178846367014,20.65621344955563,4.719272340176107,-1.126530865218332,-1.0876443404833653,-1.4898425806229565,-0.2781603532829883,0.04592484055872617,-0.8718679686134229
65111,17.675,-0.6581220110134353,-0.2523183974941892,0.6118260343577222,-0.3589982570817018,20.25012708729676,8.645108849572216,-17.20797226477125,-1.2107530588439326,-2.9890234401491194,-1.431672155647431,-0.32562505674626135,0.05216117033927477,-0.8488524263485866
65112,17.683,-0.6573863566495121,-0.25438031404310923,0.6145327005988923,-0.35423635303712364,20.210726946487757,-27.76679917196981,-6.113700682620604,-0.5605386579291337,-1.003099904668092,-0.8261576153097501,-0.32663690639836523,0.04992528406044873,-0.8408107796556942
65113,17.692,-0.658768878911178,-0.2598720322598829,0.611864907699452,-0.3522945156444669,8.226753893164211,-41.23386180483245,6.772205316873058,0.721438105863259,0.030122399709551894,-1.4065252482393769,-0.3295428497300502,0.042626913527782376,-0.8462297443296646
65114,17.700,-0.6634739653229331,-0.2677510054890606,0.6017596786666857,-0.35496054080591544,-1.8250355317251004,-31.803982617907824,17.193043156680954,2.19495325834828,1.7827983657382216,-1.791543672718426,-0.31803047555332786,0.024113427602574556,-0.8548131503024481
65115,17.708,-0.6666471690920949,-0.2765495565171651,0.5909274001352115,-0.3604257239724918,-16.334438091220715,-12.104190284558857,27.810270214959875,2.9084257485282348,1.7756848753040397,-1.3946724198919462,-0.30214134152487493,-0.017124783745137005,-0.8593358854461984
65116,17.717,-0.6658721536648046,-0.2844595668570007,0.5872863357032116,-0.3616514754478642,-25.64653383217562,5.036220739117062,28.49774292645588,1.805093465355906,-0.1359714565850488,-1.120084133912152,-0.3070260846321867,-0.024939536043058527,-0.8589065091113149
65117,17.725,-0.6637886464325524,-0.2902878081600684,0.5904941408517475,-0.3555759987971915,-10.472418904483483,23.444659480297393,19.182800638162202,-0.06209783905956036,-1.7361657280350529,-1.390447177413751,-0.32295289593448684,-0.025491050474242587,-0.8457951514206222
65118,17.733,-0.6635363686272846,-0.29237312668610244,0.5927793438573556,-0.35049977431768947,11.89752010668541,32.423422342400684,17.722083850610417,-0.5642965831958081,-0.9393617648329048,-0.9273672105957822,-0.3222001014064003,-0.026933626683357127,-0.850437538743777
65119,17.742,-0.6676770305044937,-0.2873998371823791,0.5919431848641636,-0.34815511258218534,32.66406123233742,23.72973037368907,29.734057197969975,-1.3409671763608364,0.9732085954637691,-0.0780583017913994,-0.3168196156172762,-0.017645849865849363,-0.8525666948712033
65120,17.750,-0.6788724191204821,-0.27270379989351196,0.5878982918418946,-0.3451673138211765,37.624628454231136,15.34568097500805,51.91366805280648,-3.2069580072331085,3.256917347722979,0.3856052047098801,-0.3033540968537059,0.012913536365268926,-0.8611502816678296
65121,17.758,-0.6937534162329695,-0.2506941167319341,0.5847223467204896,-0.3375773015870041,41.41804615571862,15.592076393862689,54.952407491963605,-5.361433249055465,3.943722895982683,0.42645784004340725,-0.27404221973419,0.05004005076914977,-0.8645057891822819
65122,17.767,-0.70904512304449,-0.224486332706759,0.5825902277459681,-0.3277949457352803,47.160823383541995,18.648628150456098,51.20256267180659,-6.476220802309719,4.029045823754869,0.685164432007054,-0.23937115339828086,0.09057161262310777,-0.8651358493443345
65123,17.775,-0.722888020103448,-0.1960569838861756,0.5836168323277237,-0.3136653670460394,47.72401268988631,6.827563864701901,41.732012963793174,-7.63402147089761,3.2369564718985635,0.5485202637297968,-0.22227310408190518,0.15088419303812556,-0.8669688419752046
65124,17.783,-0.7362184004261833,-0.1701431032548788,0.5824977272290115,-0.2995499775692658,49.44127380823765,-19.76032819642007,20.665374585154176,-7.010969873636883,3.334734269287016,0.13426150804089287,-0.1973819232341736,0.21190810730235415,-0.8643696107793534
65125,17.792,-0.7517947240638714,-0.14572339512286425,0.5760952499981019,-0.2858035127727046,37.11813480673375,-28.988207958375497,11.670815388545526,-6.4099882123017355,4.499535476415826,-0.3962667189641015,-0.16348930389635769,0.2514127610701232,-0.8545097431836584
65126,17.800,-0.7659646032524233,-0.1239193702676255,0.5690086925496808,-0.27234412796999274,23.165928699509962,-21.604094467866535,2.9953894329727877,-5.80232437953856,4.245900654206704,-0.6372022654792475,-0.1352001507599983,0.2941040884267281,-0.8473447748510895
65127,17.808,-0.7765485530761094,-0.1077537626248022,0.5628962740584584,-0.2617427286606137,20.732228787950962,-20.568985358572597,-8.79837101154672,-4.332661840660165,3.3052137867645413,-0.6181940912738499,-0.10615045954690683,0.323642422015979,-0.8465873538360185
65128,17.817,-0.7858463513956242,-0.09692119874215925,0.5551667115108959,-0.2546403653444315,11.589462351940758,-17.313811412448917,-10.71451525378323,-2.7300124598167788,3.177770007833262,-0.658925217501666,-0.09133859582776722,0.33527320553144613,-0.8281556507238457
65129,17.825,-0.7937151462223079,-0.09147605138381407,0.5477314573273606,-0.24827132201398486,9.959549839243467,-8.085117604602445,-12.007872648048806,-1.6040950394623756,2.627506582479324,-1.1416152764069938,-0.08400821681253211,0.34455746908236107,-0.829543832403448
65130,17.833,-0.7997957095901715,-0.08942994334916396,0.541083524557513,-0.24404451972158378,8.396794097979948,1.5417712908825654,-8.709775855222318,-0.6806930351461613,2.0790933355823373,-1.0643622565825264,-0.07520093952071139,0.34018289690044545,-0.8336766585317059
65131,17.842,-0.8030155982062822,-0.09004839111914101,0.5371944080143364,-0.24182515231544374,20.903801563877096,-1.6045031966272056,-9.802949526743316,-0.009111865220821275,1.0745229968908239,-0.7899564803474691,-0.060608344907641644,0.34061027591201415,-0.8209150117381984
65132,17.850,-0.8044618463620158,-0.0940047973431104,0.5347240509664236,-0.24098635883044298,34.452026938806895,-5.219297298471878,-14.986943009575741,0.7696701695527557,0.40187842637666493,-0.8270633179274439,-0.07033861535341458,0.34455512690463247,-0.8289955851436989
