packet_counter,timestamp_s,q_w,q_x,q_y,q_z,acc_x,acc_y,acc_z,gyr_x,gyr_y,gyr_z,mag_x,mag_y,mag_z
24339,0.000,0.9997983525020913,0.0059226030669786555,0.002511301524879327,0.019022893356867375,0.11796879921478994,0.05759466638016894,9.751499996679126,0.010795534061543682,0.0017864558290627106,-0.010528566816504813,2.335802261835692,-0.5609312986025098,-1.0750895841267023
24340,0.008,0.9997985677986332,0.0059131443075731895,0.002513129217073267,0.019014277102710447,0.11269394630344441,0.022238109774583358,9.731883341919495,0.008002833887164964,0.0012357469065295953,-0.010581025569708883,2.3313270154048746,-0.568395010949957,-1.064064315804137
24341,0.017,0.9997988533709237,0.005899187916657014,0.0025237047199868053,0.019002191836651732,0.10736717183983384,-0.013276742671790558,9.712272596247704,0.006973057572920472,0.0032384754667951683,-0.011376898996016748,2.329650572394958,-0.5630658816450065,-1.0685220170343819
24342,0.025,0.9997986750589493,0.005898148068133033,0.0025085655758656723,0.019013897509127967,0.11704678468017175,-0.012069133091931007,9.752553844238557,0.009920771567438428,-0.003017972622721634,-0.005815358107017848,2.3367873315652843,-0.5665578694423915,-1.0762497503792738
24343,0.033,0.999798486463694,0.005911169188283098,0.0025149187242484317,0.01901893076766355,0.08894059361955052,-0.02242326245588905,9.780778194441982,0.013447459332676883,0.002088031527689076,-0.007302826106787397,2.3376928395044563,-0.5613384310205662,-1.0665263624802004
24344,0.042,0.9997988311023588,0.005898479498866345,0.0025122055657723257,0.01900510692298648,0.12213371467251183,0.02587347427090879,9.772158792806515,0.00719584388164346,7.901376745949638e-05,-0.0117968592384831,2.332330354810658,-0.5679415203462694,-1.0677236592260009
24345,0.050,0.9997985833288571,0.00590878356275884,0.0024995378728210394,0.01901660750085988,0.04656802352003366,0.003015885118335705,9.74804651487786,0.012716457136119647,-0.002469252530372182,-0.00576322561203147,2.328155310850322,-0.5647353845374076,-1.064366407554246
24346,0.058,0.9997987665775506,0.005912331599997669,0.0024912674326066577,0.019006953244532068,0.035218673231633454,0.016400274112239394,9.771956806242232,0.011021681673379307,-0.0013757777637903223,-0.010949018763325869,2.3362243979024835,-0.5623103136878246,-1.066039553020451
24347,0.067,0.9997990306150819,0.005911164228479124,0.002491194665075598,0.018993432226644725,0.009492188031665518,0.06474590891111744,9.734898434131038,0.009991575362116376,0.0006264018403906766,-0.011745422960970383,2.336744517932833,-0.5662581099981789,-1.0703931138612812
24348,0.075,0.9997991862517792,0.005900631292727019,0.0025067503096069675,0.01898646685176051,-0.018857128666458264,0.054158365409864906,9.763122314742045,0.007785486898096999,0.004386904394482942,-0.010163771682658376,2.3370011612302397,-0.5660302057416944,-1.0721025087107288
24349,0.083,0.9997993428692212,0.005888407895250202,0.002490034148081131,0.01898421398622128,-0.025292697528425077,0.10333733942749544,9.806614752745874,0.007276205775455149,-0.0033266365629612106,-0.009041696388324269,2.3347793425813013,-0.560626903339734,-1.0687518401627714
24350,0.092,0.9997995047955108,0.00591170423207975,0.002481731680561374,0.018969527447709345,-0.04685354448071284,0.044397089642183314,9.79134461779967,0.01580435793179837,-0.001432727695296637,-0.012060664229354211,2.3276832566098635,-0.5625590791278431,-1.0665879454429799
24351,0.100,0.9997994660109446,0.005908713996220278,0.002493804812067837,0.018970919869647617,-0.06814175111901345,0.05729771518222694,9.774965684489748,0.009627029023381412,0.0035364869457482763,-0.008153304226592169,2.335026825624455,-0.5638052242372171,-1.0692081696565485
24352,0.108,0.9997995006855505,0.005892723306930822,0.0024711505318789967,0.018977029693853578,-0.023874197877046987,0.021232486066675483,9.743526248858048,0.006324195868033973,-0.004726948322649452,-0.007081949605960791,2.331630736257753,-0.5584621874765772,-1.0722136251100112
24353,0.117,0.9997993923282612,0.005894174105463133,0.0024749701574096816,0.01898178954615812,-0.03525790309314748,0.034344534673263614,9.76742950694242,0.010659182574727455,0.001532972561160258,-0.0073571117614184955,2.336026629703736,-0.5628588385720559,-1.0723839025759991
24354,0.125,0.9997993452718524,0.005896756461100018,0.002465313400514142,0.018984722464431225,0.018658725952913673,-0.0009251257419956621,9.77627515516128,0.010882553937983685,-0.0016249675213899923,-0.007775247965689477,2.3335512794812665,-0.5642795760244387,-1.0677495034972742
24355,0.133,0.9997992369117259,0.0058982117498679225,0.0024691280774649022,0.01898948065171355,0.023244426562915095,-0.035636973210974233,9.7969858669354,0.010660261493093416,0.001531793710753739,-0.0073575112416681115,2.3256962931997425,-0.5622709092300382,-1.0619662019201135
24356,0.142,0.999799191123152,0.0058954241958365326,0.0024813511697567483,0.01899116371935047,0.046589672893926834,0.012087881482005463,9.748039381524354,0.009629151160846058,0.003533667193648409,-0.008154587617374112,2.334978590393514,-0.5644750295509814,-1.062609892453491
24357,0.150,0.9997993471755315,0.005883222301017612,0.0024646135918409847,0.018988911569155578,0.08440055592522053,0.02466252789226941,9.760081081089844,0.007281237565710605,-0.003331834540117686,-0.009041510053565972,2.329413187008161,-0.5686901345756066,-1.0694469836273641
24358,0.158,0.9997995531265715,0.005874040859651386,0.002467040493262434,0.01898059332824856,0.046665184193602195,0.013403071262693144,9.748037299621014,0.008012782964013646,0.0012225375122504169,-0.010584260969424674,2.3350230530804814,-0.5667301438761189,-1.0686921092912447
24359,0.167,0.9997996294180115,0.005873442233864027,0.0024528122729421797,0.018978603844514677,0.0960631585441784,0.013603554813358806,9.73617775191005,0.010077280988685317,-0.002782646668688914,-0.008990078919478003,2.3376910210088893,-0.5618243723541952,-1.066277603686946
24360,0.175,0.9997996574686785,0.005866203756864307,0.002473312220321585,0.018976704288618137,0.04478317082585117,0.02792396848646811,9.812212094668446,0.008598727150883143,0.005533951846668684,-0.00895286658390456,2.332298926586549,-0.5578904834995303,-1.0634244751933173
24361,0.183,0.9997996763775323,0.005864421760443458,0.002472221662215915,0.018976400945657296,0.06298308608765463,0.03939610991735403,9.74369182688646,0.00985507656018994,0.0003737239765821421,-0.008572835301911205,2.342124526762199,-0.5643166625729436,-1.0715930090014025
24362,0.192,0.9997995799377428,0.005858780744920533,0.002465482710768741,0.018984099649426846,0.04456431135199104,0.029451344110844893,9.812208624863342,0.008901123769985088,-0.0010237412881378186,-0.006612523165335852,2.325541338633447,-0.5631191935584821,-1.0741671879936543
24363,0.200,0.9997994716613374,0.005860253888067446,0.002469282711720098,0.0189888528607616,0.02516953781716083,0.029053288802919432,9.731647467750292,0.01066443912839945,0.001528086420766572,-0.00735872709159815,2.3321224042350295,-0.5609081195096942,-1.0726751234580432
24364,0.208,0.9997992361033342,0.0058649546288151375,0.0024773231402728402,0.01899875428679781,-0.0031311130781251097,0.018647375008662728,9.759887239423056,0.011473322149603815,0.002683061914639868,-0.006144503512150951,2.3386374732526303,-0.5581230235745779,-1.062155139970562
24365,0.217,0.9997992765575873,0.005850390862982735,0.0024868508517937636,0.018999870907897932,0.02984569585108926,0.06687585223231128,9.751184458419093,0.006838022580351116,0.002978559106706105,-0.008207931068499283,2.3323627488487566,-0.5640771687700512,-1.0721549605575964
24366,0.225,0.999799335525779,0.005864183296611947,0.002494313519161209,0.01899153591847772,0.02454858135886047,0.03152732262171856,9.731641355491991,0.01360817765320313,0.002317229736104121,-0.010482645403415794,2.334611506049093,-0.5670739435966811,-1.079190654057386
24367,0.233,0.9997991477100749,0.00587726822333481,0.0025006170954869583,0.01899654891239358,-0.01989565482039755,0.06933060488316548,9.763024302986219,0.013462470386210732,0.0020758916931587932,-0.007307831942119464,2.3394281067807174,-0.5677205698176296,-1.0701154521129028
24368,0.242,0.9997991721009281,0.0058685099710530444,0.002488312419373017,0.01899958837245203,0.01745389474368765,0.010380076417441831,9.776271912173964,0.008096535456492634,-0.0021827674915590547,-0.007826680081137639,2.3336693177283734,-0.5607706137151904,-1.0838963957122039
24369,0.250,0.9997993663329134,0.0058718512796523,0.0024799196612179217,0.018989429726273453,-0.0036129514548513325,0.022978004230514687,9.759877837567442,0.0110395412029058,-0.0013932433717178147,-0.01095069205455448,2.335775119955032,-0.566267381635305,-1.0713767450066782
24370,0.258,0.9997993783150777,0.005877197235533279,0.002488776842834891,0.01898598597033793,-0.004125377307459282,-0.0478511128992547,9.761106439127452,0.011623617164602392,0.002919686000836555,-0.009320862302248602,2.3323631893954886,-0.5577297986122111,-1.0722152245886791
24371,0.267,0.9997994451127493,0.005883795213040217,0.0024852746285642037,0.018980882912830115,-0.008850547246101,-0.011339185906763942,9.740352215860687,0.011849284851896515,-0.0002388004566279322,-0.009736822427924072,2.341636343279111,-0.5630960144656666,-1.0716081676137357
24372,0.275,0.9997993644334343,0.005872424299191148,0.002499520965255319,0.018986782410282173,0.017265901514876694,0.01383861467690119,9.776267962240302,0.007649037348369569,0.004130305700808391,-0.00699553883406477,2.3321044564968334,-0.5623497181456111,-1.070219985388388
24373,0.283,0.9997992121805682,0.005899520773447223,0.0024820374632530135,0.018988693156456436,0.028780104745592498,0.0023836172766142777,9.752384856709469,0.016712767708518206,-0.003692811530901473,-0.008089037467446394,2.3403638852685296,-0.5635170543394121,-1.0645328854998823
24374,0.292,0.9997994173377721,0.005897365264161959,0.0024952342509902254,0.0189768274489092,0.05042001025669451,0.06341169606021285,9.767525109530427,0.009785508994123759,0.0037612744602577458,-0.011334337700567573,2.337263107517401,-0.5665416440774208,-1.0745373193137957
24375,0.300,0.9997993786519829,0.005894424993633896,0.0025072481475851326,0.018978195589413223,0.009541741635476397,0.07469815853431515,9.670560423061746,0.009638741514507033,0.003522156297423251,-0.008159205759809099,2.3337834296547304,-0.556939462015806,-1.0661083925400698
24376,0.308,0.9997997019591497,0.005894563516041768,0.0024938417365794802,0.018962880497026005,0.03390450079680221,0.1130179743279595,9.770618898111584,0.01023806802384871,-0.0025559225861562515,-0.012164785598101092,2.335034065718512,-0.5623497181456111,-1.0701985691348683
24377,0.317,0.9997998481334068,0.005889577437822056,0.0024878077819881065,0.018957514669941822,0.02898570081400092,0.07760100942094666,9.751107599370672,0.009057817890252855,-0.000793517571182724,-0.00978839076557643,2.341322185887774,-0.5691088565400706,-1.0620312052741154
24378,0.325,0.999799988190647,0.005884870707200205,0.002482185466834374,0.01895232613824961,0.012463403601788487,0.05458578772226007,9.755478753568182,0.009058436873235102,-0.0007941412055780669,-0.009788525877671766,2.337511217492443,-0.5606871689810544,-1.0750794091594982
24379,0.333,0.9998000071341834,0.005883137278152578,0.002481047389219256,0.01895201398548798,0.012079158615503544,-0.01639374163752639,9.756761859465907,0.009866530611020689,0.0003621729454746215,-0.008575015752285533,2.333791827424255,-0.5645190698273308,-1.0672571547650198
24380,0.342,0.9997999472659207,0.0058930583499181045,0.002482261273438566,0.018951931018172535,-0.020732898276941122,0.008762016197097579,9.764231778407447,0.012663665768972324,0.0009118215438016303,-0.008524412044694486,2.343077964938421,-0.5628217520235509,-1.0684261770530983
24381,0.350,0.9997998390928868,0.005894577422510081,0.0024860189058728303,0.01895667209316715,0.007284532294823401,0.021008334725473168,9.735974598830644,0.010675225796167951,0.0015178812323207007,-0.007361737867793182,2.3250582886990627,-0.56507918425797,-1.0748845838861136
24382,0.358,0.9997996589338816,0.005900639691219363,0.002481263291725354,0.01896490915892267,0.018783626535589463,0.009457429304989641,9.712101189888047,0.011709554532313078,-0.00048350956030339,-0.0065626522877890925,2.329170854457815,-0.5684483228634328,-1.0696952092610623
24383,0.367,0.9997993659463963,0.005904209340565826,0.002503061468183879,0.018976376064306643,0.028245678551352696,0.011074611419552481,9.752380418703192,0.011257258203557151,0.005831816178347542,-0.005734544529742749,2.3394158348025877,-0.5645306593737386,-1.0684367224385527
24384,0.375,0.999799387267602,0.0058955775599544916,0.002491134864543915,0.0189795055691631,0.01841879037738462,0.01117243284189929,9.712100065310283,0.00810671509533653,-0.00219219380324294,-0.007826621843074564,2.3389451754550685,-0.5679716531669298,-1.0708490729368079
24385,0.383,0.9997993265793619,0.005905467106622685,0.002492493357298816,0.018979449585580312,0.08251228222635676,0.048456879483997385,9.760008099983914,0.012667201902833913,0.0009082906941376582,-0.008525081628885364,2.339465464926469,-0.5694781532627301,-1.0752258122511313
24386,0.392,0.9997993954560834,0.0059052073210038546,0.0024780126893997408,0.018977798219450517,0.056338636793438535,0.024930269083683076,9.724116870727492,0.010097731993264424,-0.0028007111376184136,-0.00898947858965158,2.335064302378942,-0.5638539003321298,-1.0743347547262225
24387,0.400,0.999799366834517,0.0058951327823433515,0.002479242323634394,0.018982277109943213,0.06107040440820687,-0.009860423358087324,9.744923728674989,0.007881434714785855,0.0009641725549634175,-0.007413237462481239,2.3362456268056055,-0.5650235544352126,-1.068943533882279
24388,0.408,0.9997994315699504,0.005901885057643182,0.0024754975224450726,0.018977257367363373,0.07760704697369711,0.014706340366569773,9.740527215976847,0.01186203979655433,-0.0002512264678862526,-0.009738904322631964,2.3291749489397855,-0.5608849404168786,-1.0702553087260036
24389,0.417,0.9997993328483444,0.005896264182363387,0.0024684825061310266,0.01898511782462445,0.018640309500634916,0.01530817604762387,9.712094004785717,0.008916651577322195,-0.0010372711452391115,-0.006613691500943992,2.3358020076741157,-0.5645932429243407,-1.0750548164164622
24390,0.425,0.9997991642668136,0.00589510522596883,0.0024528091678397575,0.018996383680651836,0.02848409735644624,0.016787470404258754,9.75237156308859,0.009951462085874885,-0.0030380949464030678,-0.005813908212944488,2.3361980862829723,-0.5556840452693056,-1.0624402884205446
24391,0.433,0.9997991355293423,0.005885037307711819,0.002454030078273014,0.019000859639556812,-0.020771205491742765,0.017974639812212395,9.764219081103521,0.00788301939765869,0.0009621327320652155,-0.007413896898401329,2.334516820194567,-0.568415872133491,-1.0662382227498268
24392,0.442,0.9997990741856504,0.005895093472037333,0.0024558748800329,0.019000731802910627,-0.032398413090771815,0.031281675523674474,9.788078355871399,0.012671491063697944,0.000904030836655916,-0.008526583104047044,2.3392668440461435,-0.5565972310576333,-1.0814535203123372
24393,0.450,0.9997992111039248,0.005897309071428757,0.0024605466255761535,0.018992233465013168,-0.030636798337904118,0.019036892635502203,9.723936204845195,0.01083078698970068,0.0017453785515110826,-0.010539833347206805,2.329415598547404,-0.5596596564910387,-1.0697768670778456
24394,0.458,0.9997992885489417,0.005903728549323742,0.0024563673412960926,0.01898670233956711,-0.08003791891020358,0.02040672378803734,9.735781850154103,0.011866268645079356,-0.0002555742864461602,-0.00973979104401227,2.330899457739593,-0.5679855606226191,-1.072372706225323
24395,0.467,0.9997991327837101,0.005896913590535519,0.0024624851905565427,0.018996227565862327,-0.047329330789891114,-0.0029810900541674687,9.728343967682465,0.008691909018308302,0.0021181023348791866,-0.006201571954242112,2.331343297144449,-0.5652421870545707,-1.0662915557066814
24396,0.475,0.9997989453651722,0.005903169532317651,0.002457828242768564,0.01900474984027769,-0.042397053067439926,0.0340876732768585,9.747786287214181,0.011718236974337368,-0.0004905268960471523,-0.006564018862234415,2.32921048858997,-0.5631284651956084,-1.0751169100709779
24397,0.483,0.9997990823161478,0.005905396766925093,0.00246248639759138,0.01899624830212201,-0.02621252624030365,-0.012980261526032395,9.744767908923174,0.010833536085225779,0.0017421085503034582,-0.01054062738291317,2.3365111084192702,-0.5660278878324128,-1.0718619549877593
24398,0.492,0.9997987968352285,0.005901901110312285,0.0024730515552138484,0.01901098172423008,0.016360276853566804,0.03612766313325766,9.776212560879255,0.009499949134912837,0.0032751384120478584,-0.004989336896597789,2.3342586295072745,-0.5652236437803184,-1.064317154664714
24399,0.500,0.9997985627785136,0.005940717774137731,0.002458015847515427,0.019013150618469598,0.0347820711630296,0.047843341057978675,9.707656637087307,0.01953646788914655,-0.003159014326539975,-0.008038905847497934,2.339704143541575,-0.5709359772636178,-1.0744777511835744
24400,0.508,0.9997985253806195,0.005930966982702174,0.002459329232888357,0.019017990880050552,0.06109177864904127,0.07348256015695916,9.743506423714866,0.00788767088790177,0.0009565616375335976,-0.007415116572338661,2.3343352320707647,-0.5672763508510685,-1.0747959051238234
24401,0.517,0.9997984170312342,0.005932533488323294,0.002463038233110316,0.019022717758268137,0.07254622062103436,0.06175476169644695,9.719651676933198,0.010686425227210663,0.001506153072561216,-0.007365373484901164,2.329173113500114,-0.5616150113719633,-1.0700042320853997
24402,0.525,0.9997983630933013,0.005935392559060511,0.002453201073796466,0.019025931662267594,0.03975199116623552,0.08684141465165642,9.727064265890926,0.010915760977319418,-0.0016529521950709642,-0.007777018023822793,2.3289034526839543,-0.5693947085285941,-1.066514122278232
24403,0.533,0.9997981839956803,0.005941418201786819,0.0024486680074475727,0.019034044595954938,0.06576641094129759,0.04055593175933145,9.764347576455881,0.011722908524793785,-0.0004946980193007737,-0.006564726849572543,2.3374844653261997,-0.5604082707203756,-1.071419880528509
24404,0.542,0.999798033181384,0.005927629706260485,0.0024440171357129883,0.01904685887338692,0.04456422875294195,0.053033245590701335,9.747912082647817,0.00693280483202489,-0.00043625388753896176,-0.005451853217506259,2.3348061286357544,-0.5604175423575019,-1.0724160044884592
24405,0.550,0.9997981705651042,0.0059298788391248325,0.0024486477068221342,0.01903835066470739,0.011429204971199073,0.006214151550483527,9.756774436948222,0.010838650855706929,0.0017353812196517408,-0.010542375313691586,2.328206996687241,-0.5657791223923943,-1.07143670602297
24406,0.558,0.9997981423101123,0.005919870262993105,0.0024494820336235117,0.019042841360595097,0.0113194016580791,0.006976395577685348,9.756774048079865,0.007890329565608426,0.000953420749044535,-0.007415905086034293,2.339442536136515,-0.5655419464987835,-1.072089297527494
24407,0.567,0.999797954043122,0.005933064727943765,0.002455691145679004,0.019047819169631226,0.01590041871282432,-0.02763399230654073,9.777645642422241,0.013488388203746182,0.0020529197971197047,-0.007316816443191041,2.334073590777494,-0.562370579329145,-1.0724028157730443
24408,0.575,0.9997978548151047,0.005927541192196572,0.0024484874839908574,0.019055672949831282,0.01115535989578604,0.008758108640679526,9.756772800850088,0.00892707833946863,-0.0010471193976399624,-0.006614625806967737,2.3325782784005438,-0.5647724710859126,-1.0682402527508605
24409,0.583,0.9997977463773705,0.005929125654821213,0.0024521780671922385,0.019060394288357166,-0.0006894485948388335,-0.04969429936793103,9.782091102692611,0.010690690762910467,0.0015017087725829523,-0.007366758260051827,2.33544714319568,-0.5656701806561613,-1.0599093797570425
24410,0.592,0.9997975608024646,0.005935447003309216,0.00244815056714451,0.01906867696286242,0.004238165620679382,-0.012507809311381506,9.801492589102368,0.011727172371129106,-0.0004981799148239158,-0.006565251849951421,2.3352679835552257,-0.5552560516677153,-1.06879926342887
24411,0.600,0.9997974998552056,0.005945411418152007,0.0024494378199568234,0.019068603009027792,0.027608949006088762,0.035237138391587555,9.752324870877871,0.012684812595561442,0.0008907903531131921,-0.008529744042142878,2.334269032157522,-0.5696318844222048,-1.0657401720037616
24412,0.608,0.9997972737636079,0.005943166762778505,0.0024475211864198507,0.01908139889342141,0.006323105014048113,0.047842629294258567,9.735880386125853,0.009735440059839052,0.00011029225689246206,-0.005402859617131621,2.328939636210132,-0.5623613076920188,-1.0714638018224807
24414,0.625,0.9997972318537421,0.005951493350141901,0.0024475680700600205,0.01908099355486473,0.047581922630350534,0.10859693580496745,9.72474770465896,0.011286858019663715,0.0006140708703850156,-0.008554819124662034,2.3352552201980497,-0.5591459002460307,-1.0670533161813893
24415,0.633,0.9997974625533276,0.005935011254051748,0.0024388204465686067,0.01907515840489308,0.034592228264309535,0.13334507616049796,9.706063512791616,0.006282552983783709,-0.00137153316133141,-0.009840755080539361,2.3318585038994604,-0.5628356594792402,-1.0699730112829269
24416,0.642,0.9997974016397075,0.005944989902929895,0.002440094925835266,0.01907508076777117,0.023029853209961544,0.1466205503246122,9.729885877589611,0.012688175488637895,0.000887632715845328,-0.008530645958727259,2.3330202145893075,-0.5637356869587704,-1.0618987542022176
24417,0.650,0.9997975462612662,0.005940273567602111,0.002434208554182325,0.019069721251467192,0.03269056008729961,0.1483335976373876,9.77015069922031,0.009083351717790216,-0.0008230252324305328,-0.009791725155571938,2.3284318728784372,-0.5603827737182787,-1.068800559892747
24418,0.658,0.9997977638982036,0.005930940611189536,0.002436283712920673,0.01906094880348331,0.03950789810484846,0.17198280468419302,9.725402933194513,0.008047439631532491,0.0011751763504263782,-0.010594182093665293,2.339376624273059,-0.5637472765051781,-1.063072967812371
24419,0.667,0.9997982366983266,0.005915242941928823,0.0024288597139639715,0.019041965138754037,0.03928132855532221,0.1008280187863613,9.72693124933776,0.006436494421658504,-0.0011459046391687636,-0.013017673274981404,2.3384772326406855,-0.5579878356893558,-1.0736330281378323
24420,0.675,0.9997983352937758,0.005901995152803159,0.0024250990793465163,0.019041378402485414,0.044063610939939116,0.0659264995599452,9.747835686077138,0.007091201439732261,-0.00021430340956236536,-0.008629484090490809,2.3318603901714474,-0.5613731996597895,-1.0702310414655787
24421,0.683,0.9997984891641196,0.005897014696297518,0.002418733388178318,0.019035651068802145,0.06535220476223941,0.05492033422035703,9.764280127817242,0.009085863629548305,-0.000825100804700606,-0.009792181467215623,2.3326031951271147,-0.565781440301676,-1.0716487047412462
24422,0.692,0.9997988478326103,0.005878770062392069,0.0024372627792094903,0.019020086363736147,0.02247601873518999,0.0071209754597749775,9.732929503466693,0.0059758781651693136,0.005169844584973894,-0.012200046889090294,2.3306342811198197,-0.5625868940392218,-1.069496006372131
24423,0.700,0.9997989195913634,0.005878500810599353,0.002422639027560968,0.019018265754391275,0.010616912001864477,-0.05145946505857719,9.758312944190351,0.010124277964909664,-0.00282454405909252,-0.00898957880166783,2.3322856379621153,-0.5693483503429629,-1.061606674678007
24424,0.708,0.9997988115841394,0.005880119528466515,0.0024263009734563864,0.019022975920197163,0.05336111631152646,-0.002182451405560568,9.789658383215826,0.01069875946765803,0.0014945712585786623,-0.007369417535883411,2.3381832481416316,-0.5562140268792845,-1.0668155909975057
24425,0.717,0.9997990265056325,0.005871005029374933,0.002428935557551231,0.01901415710443796,0.05516123837068067,-0.014783166021630482,9.72555648629554,0.0080514519979788,0.0011707637132843905,-0.010595287750874035,2.3359499254756155,-0.5622709092300381,-1.061891245032794
24426,0.725,0.9997991951940384,0.005853309008602799,0.00243339327973967,0.019010172543928575,0.02220436080030923,0.009957943951366318,9.732927637274672,0.00605721575716139,0.001780795092970599,-0.009432860898769772,2.3367395877133896,-0.5601479157339494,-1.069718690749347
24427,0.733,0.9997994616534791,0.0058524764384210205,0.0024334997290207886,0.018996396395646542,0.024951605798406933,-0.011450122854233054,9.817955966969881,0.01004762148326476,0.0005589586131117811,-0.01175805999036764,2.331143456288559,-0.5699385975942621,-1.0723523787587348
24428,0.742,0.9997996778678875,0.005843168644865908,0.002435549410047149,0.018987617399978316,-0.006046905859320565,7.062172375771956e-05,9.761222723158998,0.00805332022138654,0.0011688917954948061,-0.010595693603280314,2.3316216098917106,-0.5613801533876343,-1.0709651954490396
24429,0.750,0.9998000618274023,0.005839190192300799,0.0024299108193602576,0.018969337395689626,-0.01097929244255056,-0.03553471296020585,9.741877845442291,0.00924412656711089,-0.0006037086471122012,-0.012969709908564452,2.3335871749576578,-0.5613963787526051,-1.0726597796365844
24430,0.758,0.9998002319721173,0.005855583908976229,0.0024106867986867083,0.018957765552529614,0.015379109155298791,-0.009915699611070668,9.777680499388673,0.014120530645258566,-0.00405008299840378,-0.01131479383103305,2.338223684123049,-0.5650560051651543,-1.0723469797597154
24431,0.767,0.9998005971193726,0.005830248422809488,0.0024182143387220137,0.01894535411352194,-0.022180929278867806,0.05041670553435347,9.764102361998173,0.004217014305673034,0.0026139186658411598,-0.011448364395071457,2.3335675781649465,-0.560882622507597,-1.069979061247168
24432,0.775,0.9998006636433658,0.005837036742175785,0.002414538501731703,0.018940221333974206,0.010571822470425322,0.026920583496961047,9.756740243863087,0.011894040262806832,-0.0002811216519328908,-0.009744501611000225,2.3347563799031374,-0.5571789558186981,-1.0656106897444353
24433,0.783,0.9998008068150422,0.0058393344362585265,0.0024192612836206676,0.01893135072239397,0.005735872584557184,0.06327399899235674,9.735792690225292,0.010857034117376386,0.0017157561607397903,-0.010548101343572812,2.3347968836609754,-0.5650444156187465,-1.0711513498960423
24434,0.792,0.9998009042836745,0.005826119566842908,0.0024154706403256795,0.01893075872558224,0.022155843028755815,0.08780215922001833,9.731302065970674,0.007099061787553891,-0.00022201412323853662,-0.00863079216163945,2.334225179458338,-0.5585881037246734,-1.059741397670584
24435,0.800,0.9998011270549088,0.005809827725311735,0.00240718280899974,0.01892505515081225,0.017323729117047038,0.05202710112453387,9.711969151874628,0.0062948375585432865,-0.001384229506004756,-0.009841973149431681,2.339403596712668,-0.5608524896869369,-1.0667626284589016
24436,0.808,0.9998010753020478,0.005812704229770447,0.002397675990191541,0.018928112538056097,0.0009614854531509799,0.028924552429873417,9.716454425836515,0.010938787803932365,-0.001669741401170739,-0.0077789020994658755,2.3377321855868245,-0.5601687769174833,-1.0719086598851768
24437,0.817,0.999801461077424,0.005815742392116402,0.00240333779025968,0.018906071388414315,-0.0009754159456704669,0.043238755521494865,9.780542252641425,0.01101299233284817,0.001937311264069825,-0.01372627810073789,2.329144339509044,-0.5647516099023786,-1.066068130492964
24438,0.825,0.9998018169099943,0.005797530704151524,0.0024218130567582557,0.01889048339052699,-0.039104326106501844,-0.04000191284309234,9.7702049184883,0.0059828708964221955,0.005156381485376574,-0.012205222615636646,2.337929716568101,-0.5630380667336277,-1.0655318604667379
24439,0.833,0.9998017899595595,0.005780660596711048,0.0024125364133218492,0.01889826512623539,0.010096743911173598,-0.03984047574723405,9.7583678484445,0.006143553339835836,-0.001610381139338037,-0.0066648152749462595,2.336461529127704,-0.5603480050790552,-1.0650798187172288
24440,0.842,0.9998017783840063,0.0057990979742195015,0.002411356935574342,0.01889337875006959,-0.011114939329017016,-0.027383437968256714,9.741904017859518,0.01470096390251081,0.0002650478916687559,-0.00969707324967954,2.3374557421674442,-0.5628124803864247,-1.067490732478121
24441,0.850,0.9998016715364999,0.005800890898606121,0.0024154422353236155,0.018897960112437443,-0.0015146471444483717,-0.02543316877894837,9.782184173285831,0.01070826095965286,0.0014872221596218596,-0.007372270074081911,2.3338813288977627,-0.5607288913481225,-1.0795003952504045
24442,0.858,0.9998018083082527,0.0058032449115005,0.002419966649452013,0.018889420675636696,0.021629191667820777,0.02213605165387564,9.732908856277287,0.010863065242840756,0.001709585297091652,-0.010549831916383503,2.3318959806539468,-0.5628843355741528,-1.0750995963526007
24443,0.867,0.9998016808496403,0.0058176650101818125,0.002412070523335479,0.018892740930171046,0.03807245967378789,0.04694351288224027,9.728404138506011,0.013745348038929938,-0.0011227241958835935,-0.007730791495239911,2.3381882122492845,-0.5618359619006031,-1.0674946498041387
24444,0.875,0.9998016996358217,0.00581609939808356,0.002410770957893199,0.0188923946735932,0.026498351041045896,0.06043442123531974,9.752204354925517,0.009906004276625557,0.00032269981159168776,-0.008583508097485818,2.3350789858963164,-0.5580133326914529,-1.076343367851054
24445,0.883,0.9998019369096878,0.005835178160027013,0.00241032492290719,0.018874002788067456,0.005187071460030432,0.0730356457545763,9.735724664857468,0.014860133822631556,0.000482922623477607,-0.012875506833572808,2.3377338515854453,-0.5618800021769527,-1.0721365580522875
24446,0.892,0.9998020029702381,0.005842013178797691,0.002406608841853183,0.018868862514771136,0.04772070116562723,0.05094455374107612,9.768666068384489,0.011905132307407747,-0.00029092825674779563,-0.00974630612160434,2.3320707353422145,-0.5596202520332523,-1.0656071428366685
24447,0.900,0.9998022203190834,0.005832801033830125,0.0024086956125175356,0.01885992742768686,0.016698225648521223,-0.009343448739223745,9.713607365690105,0.00806519467332314,0.0011542739736562476,-0.010599163387109454,2.3338920365419016,-0.5607427988038118,-1.08096513384174
24448,0.908,0.9998023251204899,0.005855197681563278,0.0024133019798508975,0.018846838390735515,0.007854279489055975,-0.017753235916210093,9.82247636195744,0.015667346251581334,0.0016428044678445362,-0.011665733511850613,2.34258232108791,-0.5662302950868002,-1.0674208041715707
24449,0.917,0.9998024520266047,0.005864787371054769,0.0024282334358496915,0.018835203026843182,0.030834893091207998,-0.041667427153767936,9.774882458623429,0.012631364388986538,0.00425043822611991,-0.011308424527487277,2.3420904836695846,-0.5662256592682371,-1.0669361273500455
24450,0.925,0.9998023213619345,0.005879338853615591,0.0024212061278997515,0.018838506703510473,0.009433574743505767,-0.029016025144130222,9.758406705707207,0.013752005631396797,-0.0011274727221909457,-0.0077313416679122594,2.336735815169416,-0.563072835372851,-1.0692026303840432
24451,0.933,0.9998020039219832,0.005896132829140474,0.0024326421349933256,0.018848629220498507,0.06353569440873924,0.008184635458164741,9.765849460686649,0.014320980542360383,0.003194653561218532,-0.006116031604879222,2.3357945303625884,-0.5694665637163223,-1.0740319670752518
24452,0.942,0.9998019434044778,0.005906222716600455,0.0024338311668340123,0.018848526831112714,0.06531850663029275,-0.004227975847892314,9.701778968037083,0.012714398502336495,0.0008670617914766598,-0.008536662685373033,2.331400150418282,-0.5689783044734116,-1.0740687271502305
24453,0.950,0.9998019150038414,0.0059250377560373865,0.00243206346860921,0.018844355906367703,0.08655264127065077,-0.01467884340522556,9.718264990502819,0.014713949419746743,0.0002533426370213682,-0.00969919766299176,2.336001712977165,-0.5618498693562926,-1.068975450585614
24454,0.958,0.9998017852767658,0.0059054669951700035,0.0024487089749465527,0.01885522318398231,0.06795410047896853,0.04760576860340297,9.785111493828554,0.005679977128684426,0.0047004369988186785,-0.0058555024164039515,2.333369759133884,-0.5621635362561945,-1.0763164572606683
24455,0.967,0.9998018124787796,0.005930915145217192,0.0024126105331930513,0.01885044615130886,0.06808812508538312,0.0485033679985134,9.785106161834223,0.016227610645371,-0.008063905025486682,-0.009702951032793443,2.3401625817432787,-0.5635726841621697,-1.0703936245530177
24456,0.975,0.999801696401716,0.005939777508947315,0.002426937244265519,0.01885197313301681,0.04213915224995029,0.02486726844714434,9.749356063477254,0.012481135171129334,0.004023764663472217,-0.008133258613364766,2.336238606984915,-0.5633053754478986,-1.067983266419501
24457,0.983,0.9998016333427909,0.005950030517379466,0.0024283255354284987,0.018851905395046747,0.009038515186322113,0.049996546722769535,9.756650825441529,0.012718323423358078,0.0008630781667667961,-0.008537660833207483,2.339676182867547,-0.5623543539641742,-1.0706529062639067
24458,0.992,0.9998015013204672,0.005964612415093746,0.002421272503443511,0.01885520605938087,-0.007395959621927262,0.027254056680683068,9.761183750236066,0.013759127049452674,-0.0011337484514960755,-0.00773203327662134,2.333310595985438,-0.5659931191931894,-1.068223309450734
24459,1.000,0.9998014453295367,0.0059677395727417305,0.002411800457411057,0.018858399187515758,-0.007305644968240815,0.09999887796593152,9.759390518759943,0.01095699569346946,-0.0016850624549239596,-0.007779708500942318,2.3411218990088276,-0.5545167090755044,-1.0680310151682106
24460,1.008,0.9998013129122025,0.005982328310318442,0.002404741256577949,0.018861698399492147,-0.0236363199467613,0.07718286324481333,9.763924057191058,0.013760733253169349,-0.0011352756074326324,-0.007732429713412893,2.3411177028622263,-0.5635448692507908,-1.0674570086191733
24461,1.017,0.9998012135803043,0.005983999820677334,0.0024088352334339894,0.018865910588039325,-0.0517132805116399,0.06691360776462472,9.792244041978083,0.01072148791180906,0.0014735140518281225,-0.007376382104633162,2.3377964653398693,-0.5597639624087086,-1.080701727127888
24462,1.025,0.9998010258957867,0.005997351972194402,0.002414921691641473,0.018870838356536756,-0.035388024078514935,0.01998202662223473,9.78950051545035,0.013525391867363309,0.0020232817152555636,-0.007329199017561333,2.3360070667992345,-0.5618568230841372,-1.0697078198812817
24463,1.033,0.9998008618611635,0.005996255190840563,0.0023990270744106952,0.018881901770168512,-0.028535854613532856,-0.02800425172971035,9.74649121063592,0.01000025445256652,-0.0030697259602804443,-0.005811341219384846,2.330680172587937,-0.569971048324204,-1.0757736715141042
24464,1.042,0.9998006648287528,0.0060167733662298455,0.0024158417614539886,0.018883663702451314,-0.018931348942839155,-0.02594719300821741,9.786769997629897,0.015289718386516363,0.0045678519857569565,-0.008088940595918014,2.3320683576911816,-0.5681624708749092,-1.0652818950808858
24465,1.050,0.9998007049661604,0.006031229684948719,0.00242252669859654,0.018876069030685245,-0.012388186209032367,-0.07371990314642073,9.743776368207103,0.013684325974613646,0.0022377780313265414,-0.010508053926085545,2.332580046063795,-0.5650189186166495,-1.0684820580020673
24466,1.058,0.9998002727676187,0.006043892820365415,0.0024277291699520065,0.018894233629570018,0.041600747714374116,-0.03649855261189065,9.751170384600245,0.01337194414527087,0.0018035023261661165,-0.0041518062993934285,2.3374790606718143,-0.5611337058568971,-1.0706805576907934
24467,1.067,0.999799956163842,0.006060589167581448,0.0024387422156181993,0.018904217786717855,0.046201580035515645,0.0010218307593833783,9.770387547421578,0.01433262545903663,0.0031838281540787897,-0.006120905601228389,2.337168862209607,-0.5615362024563905,-1.0616451520373196
24468,1.075,0.9997998223471364,0.006075208771246231,0.0024316561999329074,0.01890751493839623,0.07417459327899444,0.013422005133739989,9.742053685766075,0.013767920632744731,-0.0011419141153273954,-0.0077327166878088825,2.334521050229378,-0.5588994527152937,-1.066816864993563
24469,1.083,0.999799708960646,0.006084180980649834,0.0024465704675892467,0.01890870161988552,0.06242773380786884,0.027065589146310666,9.765822529095303,0.012490227282442076,0.0040128219750291145,-0.008137684274756819,2.338934552531455,-0.5667370976039635,-1.0693959235822192
24470,1.092,0.9998000072599275,0.006098970077577757,0.002454363922404301,0.018887142313715223,0.07858671839319956,0.05196900837909146,9.761253527145902,0.01384629011012169,0.00244777223845469,-0.013687484585913842,2.330088769927958,-0.5644657579138551,-1.0616690938151336
24471,1.100,0.999799809811307,0.006112665114024944,0.002460820230985709,0.01889232622705523,0.052241650008557364,0.09993150481371073,9.723658211950225,0.013532946398856816,0.0020159991232035646,-0.007330963713089865,2.3455856414225678,-0.5585131814807714,-1.0774826060740217
24472,1.108,0.999799757416455,0.006115662988578852,0.0024512093217740213,0.018895377981654287,0.07351367676340441,0.08942293510173827,9.740159590236653,0.010967444556946161,-0.0016950631706523092,-0.0077797397384275335,2.326487756988978,-0.5599061040217755,-1.0700400885825718
24473,1.117,0.9997996593815356,0.006117197478440883,0.0024542964549449362,0.01889966731153586,0.014513779922852476,0.08948324808987781,9.711700874607262,0.010729842124157434,0.0014645819344541859,-0.0073783483340439816,2.3372809874791756,-0.5660765639273256,-1.0769831859940535
24474,1.125,0.9997994347266975,0.006115017376433515,0.0024520355244476624,0.018912546218043672,0.035738922205810625,0.07881444046116064,9.728206990449053,0.009769970889661061,8.420105744895625e-05,-0.005408895469603112,2.3343124049454413,-0.5618753663583896,-1.0716732974842822
24475,1.133,0.999799371153114,0.006125200194447464,0.002452629899937657,0.0189125347584661,0.014403319517748607,0.09122497211271163,9.71168483596338,0.012732757362488021,0.000848039076196026,-0.008540708889506657,2.3274784008140057,-0.562365943510582,-1.0719627561463525
24476,1.142,0.9997991463441609,0.006123024545615493,0.0024503646848077765,0.01892541288354734,0.024017326127868648,0.09322656570806737,9.75195243199829,0.009771024773873645,8.322830747861353e-05,-0.005409089457815694,2.335994117056902,-0.5684320974984619,-1.0679363763129581
24477,1.150,0.9997993661146695,0.006142517571223846,0.0024496812250170553,0.018907566117538972,-0.01371952249818927,0.08189031497072749,9.740008931927258,0.014894138926672892,0.00044478831005507905,-0.012881672961630213,2.3309228440203835,-0.5653302676072701,-1.0755718028273924
24478,1.158,0.9997991862851456,0.006148760808167507,0.002444988553678586,0.018915651589565312,-0.0465459354790052,0.03530881903516942,9.749171737384312,0.011774492086745015,-0.0005334628099965136,-0.006571368834603481,2.339432438480158,-0.5567393726707002,-1.0707080014407349
24479,1.167,0.9997993894317888,0.006153812030434282,0.0024679118378685308,0.018900288370224193,-0.04666283646211802,-0.03548082932678967,9.751107219881183,0.011613386408383181,0.006213318442881888,-0.012127546857238897,2.3362330498335844,-0.5662279771775185,-1.067223082955641
24480,1.175,0.9997994192675792,0.006145193666437934,0.002455766982714626,0.018903095924749105,-0.025524165665248563,-0.04616125929892184,9.76763077748115,0.008168274403797197,-0.0022502274410410123,-0.007826527953007324,2.3372297930213057,-0.5579530670501325,-1.0699801050984603
24481,1.183,0.9997994852263742,0.006152212028415952,0.0024521098895690843,0.018897798425347175,-0.0418223390366222,-0.06917893273357069,9.772226665733232,0.011934867919628485,-0.0003221142355166159,-0.009750251194031839,2.3301494635221847,-0.5643004372079725,-1.0699715970133838
24482,1.192,0.9997993774304428,0.006153986933654153,0.002455625231354793,0.018902466485704088,-0.030353185089849632,-0.00911517830857294,9.74652169001916,0.010735388712844142,0.001459060965270916,-0.00737995320020745,2.3320792856086863,-0.5650026932516786,-1.0667767656877625
24483,1.200,0.9997991815012595,0.0061676057325789286,0.0024615754767235236,0.018907616325494266,-0.00443591640098132,0.016826415405032796,9.782201877582702,0.013541449977463368,0.00200832449209502,-0.00733363084621115,2.340863098333753,-0.560113147094726,-1.066026504578522
24484,1.208,0.9997991902366908,0.006173323021290397,0.002470875597148433,0.018904075188071464,0.0494680507745435,0.054058620382660495,9.78952981635709,0.011697811424612127,0.002835810569531459,-0.00935066259658953,2.3321561423337522,-0.5633934560005978,-1.077290283857112
24485,1.217,0.9997990967822853,0.006167900057411744,0.0024634798872838026,0.01891175161252088,0.06089304617020289,0.11404350799588074,9.763797400722103,0.00897390039309,-0.001087154695072457,-0.006618137946540098,2.3350236291800535,-0.5584297367466353,-1.068770916101122
24486,1.225,0.9997990608480956,0.006165204311983972,0.0024752001333131846,0.01891299995658215,0.07243779359081902,0.1022091417360246,9.740041869191689,0.009695723280400215,0.003450834811565431,-0.008189193799195017,2.326557102514306,-0.5636584468055872,-1.079526121716012
24487,1.233,0.9997991403555448,0.006164891126017207,0.002459856650008893,0.01891090074480607,0.08880381869477992,0.12685884263409017,9.735429683416056,0.010176149700946352,-0.0028708879615310496,-0.008988301966036909,2.323051745440335,-0.5640331284937017,-1.0675844398211807
24488,1.242,0.9997991491752853,0.006170618843479108,0.0024691452537062815,0.01890735553113978,0.07240054204748886,0.10391414939944864,9.740024106177417,0.011700293226694693,0.0028330792060779677,-0.00935162793705272,2.334021989661101,-0.5601061933668813,-1.0653441065410674
24489,1.250,0.9997992842678608,0.006173247234866484,0.002473504930921578,0.0188987822202306,0.05107429539394488,0.04455634711969144,9.725487980105123,0.01089890271936789,0.0016657483734327505,-0.010559941261923502,2.336734081394374,-0.5623381285992033,-1.0689654608275354
24490,1.258,0.9997993755745694,0.006167336370904921,0.0024802756124316177,0.018894993931625238,0.05564906333904231,0.0818058378761058,9.744617811828679,0.008895800232144604,0.0022817055112895786,-0.00939824604711134,2.331387861496047,-0.566032523650976,-1.0723876796285312
24491,1.267,0.9997993917290068,0.006166033636368896,0.002478641808741459,0.018894778704378848,0.0294987583067812,0.05757698705631769,9.708947415753295,0.009938935976876409,0.0002871790364960772,-0.008589262410199845,2.3365431974634774,-0.5665578694423915,-1.0762515350670672
24492,1.275,0.9997993391218674,0.006169093689877555,0.0024689799829247733,0.018897828244738676,0.044120001401719955,0.024298902967281617,9.770367004100843,0.010982172228359911,-0.0017073064806956688,-0.007780201433131964,2.332104829267145,-0.5569788664735925,-1.0702709780300732
24493,1.283,0.9997993892976211,0.006154701164227138,0.00247770570906894,0.01889872450993251,0.013113884397957342,0.03530731108127774,9.713553191273276,0.006893095580101386,0.002896704289871719,-0.008237032484924278,2.3274713471051043,-0.5611360237661788,-1.0709978529888755
24494,1.292,0.9997995530151356,0.006171388528068209,0.002458241895580366,0.01888715968993974,0.02281034712220344,0.03732991813968297,9.753825553469042,0.014190424666425719,-0.004109386976874184,-0.011311868678561729,2.329367414148779,-0.5595970729404366,-1.063185543416836
24495,1.300,0.9997996957811043,0.006138282818427279,0.0024541333227949182,0.018890924532350962,-0.01963371689408566,0.0608742147063326,9.720746984780197,0.0023239810019281878,-0.0001980935533632501,-0.0075201200272034885,2.332922181073265,-0.5673435702202335,-1.0818861831087048
24496,1.308,0.9997995880755911,0.006140091860909128,0.002457617985188975,0.018895583337310663,0.03458719306479616,0.025927385388843493,9.730083801923469,0.010743456357982522,0.001451682591446688,-0.00738220225225046,2.3404569559567494,-0.5597315116787669,-1.0772643721823791
24497,1.317,0.9997996089341465,0.006138557260490116,0.0024551204501220107,0.018895302947116062,0.0392353925764081,0.06322407150192622,9.749194889941004,0.009942290180486911,0.00028387096580106676,-0.008590131484095112,2.3340518366071143,-0.5672253568468741,-1.0694269816433868
24498,1.325,0.999799700229044,0.006132663418735653,0.002461870210682174,0.018891507519851,-0.016949266975967475,0.04151821747028811,9.805907705099564,0.008899796482485966,0.0022767880565083645,-0.009399895918313993,2.340682786494154,-0.566299832365247,-1.0747587746305944
24499,1.333,0.9997998378502305,0.006128270801221755,0.002455336255253994,0.018886499292182647,0.02762419266260034,0.005607038469877772,9.77497925616996,0.009141920950093974,-0.0008846464755210583,-0.009798028670482028,2.332088428918835,-0.5618405977191663,-1.0680275131960835
24500,1.342,0.9997999019048757,0.006135293172572158,0.0024514390588258484,0.01888133404262759,0.006361533822965728,0.017889884674617666,9.758435930655935,0.01194931463922933,-0.0003352786529209672,-0.009752320019049023,2.3328598892568375,-0.5648211471808252,-1.0733650531327414
24501,1.350,0.9997997923079389,0.00613721259605311,0.002454694057098039,0.018886090109914808,0.07697559934390187,0.007212504450100862,9.763160453372013,0.01074637244406202,0.0014490545989098757,-0.007383051665565344,2.335053730287643,-0.5618869559047974,-1.0728885589136818
24502,1.358,0.9997993786224209,0.006135641337857159,0.0024383944373695906,0.018910596081627234,0.044073535771203036,0.03208561527292161,9.77034474489093,0.009866477760018725,-0.0032960762560812983,-0.0026296536144177203,2.3425896797907027,-0.5630658816450064,-1.0684274285813355
24503,1.367,0.9997996086322949,0.006119417776647179,0.0024295885201859086,0.01890482489757933,0.05592842204545834,0.020131365544696477,9.746612113438225,0.006337280376075881,-0.0014375330660764414,-0.009844186826628265,2.337448671514439,-0.5618266902634769,-1.0665235114732947
24504,1.375,0.999799501028156,0.006121244537873061,0.002433056174995066,0.0189094776979114,0.022946832004757882,0.0448575066567289,9.753793516055943,0.010747672782915293,0.0014476045729484824,-0.0073836889709614955,2.3281929231576495,-0.5628310236606772,-1.069511535402715
24505,1.383,0.9997997014701328,0.006118009532281006,0.0024135995476619637,0.018902418808726222,0.03941552850213613,0.06952995414043238,9.749151230013824,0.009387802530605008,-0.0040498240106271646,-0.010195956624814689,2.3301158779204068,-0.5596179341239705,-1.0653772972404592
24506,1.392,0.9997997930555585,0.006112131960912621,0.0024203281667227287,0.01889861530697903,0.006753497261704514,0.022569345742684304,9.758425964905033,0.008903558225929972,0.0022716843431469977,-0.009401791859188064,2.3332862384143342,-0.5569278724693982,-1.0648913464228769
24507,1.400,0.9997999475717371,0.0061075029650169916,0.0024142985522113075,0.018892707735659025,-0.03098473456388908,0.010851755703896997,9.74651792302343,0.009146762709209886,-0.0008900224710813754,-0.009798960221282314,2.3320502913442507,-0.5713129768610139,-1.0628105320797854
24508,1.408,0.9998003371241152,0.006103619594415798,0.002408697625314022,0.018874053356469973,-0.02127135466067267,0.01281986152600375,9.786791186448172,0.009308397234560745,-0.0006840102848190059,-0.012978635761405271,2.3343037021820243,-0.5586900917330618,-1.070482814007044
24509,1.417,0.9998002314722206,0.006098592591352537,0.002401738137935311,0.018882160109908716,-0.03085049736852247,0.0123387567899543,9.746516579723716,0.008987078816024993,-0.0010977005412244228,-0.006619678957371637,2.3394158348025877,-0.5645306593737386,-1.0684367224385527
24510,1.425,0.9998002955109797,0.006105644289399143,0.002397814347873481,0.018876988380633022,-0.014436445519438585,0.03704444683467868,9.741867713409018,0.011956153010776698,-0.00034180552004096584,-0.009754019578269234,2.339955975228275,-0.5628889713927161,-1.0755289478525327
24511,1.433,0.999800114697247,0.006112064421407307,0.0023930974782385437,0.018885084176154695,-0.009718865573488455,0.07448980529787011,9.760935532726783,0.011795738661753003,-0.0005485940676883399,-0.006574567765749124,2.3355975246485694,-0.559029255635061,-1.08048061976152
24512,1.442,0.9998003419742544,0.006095818790088923,0.002384141528640685,0.018879434594656967,-0.009642966157912816,0.07522682993767854,9.760929952884712,0.00634238727143962,-0.001443695824010153,-0.009844847886398183,2.326964673672459,-0.5691691221813912,-1.068483702416375
24513,1.450,0.9998003576978152,0.006094503747140785,0.0023819631086783076,0.01887930144750971,0.056097378504835226,0.09959746613912314,9.744449638065491,0.009951482995127407,0.0002746342827095681,-0.008592682525266872,2.330160001725273,-0.5667556408782158,-1.071413157131226
24514,1.458,0.9998006205201879,0.006093858429116183,0.002381287726693828,0.018865671619536038,0.06103355956736953,0.06517488357456451,9.7656513627432,0.010113622117471657,0.0004793132801465331,-0.0117725403075505,2.3350322811111552,-0.5623474002363295,-1.0699544460363122
24515,1.467,0.9998006617657688,0.006079749067404696,0.002390268985807632,0.018866902188347526,0.011543684267562738,0.06601677384592496,9.777467935341695,0.006901170510934074,0.0028846078100500674,-0.008242012222098291,2.3272638086643216,-0.5738794401767718,-1.0760056946841772
24516,1.475,0.9998008794889566,0.006070675655071854,0.0023920234131281784,0.018858061782464932,0.056054728286317065,0.029996876604099096,9.746586018639137,0.008108020738480184,0.0010965869643460933,-0.010610901886552943,2.3257942093868804,-0.5658162089408992,-1.0753605224777976
24517,1.483,0.9998009972128309,0.006073600661836462,0.002395239226529882,0.018850468860955698,0.039597151442568146,0.006910689007597513,9.751244582678568,0.010916617941003657,0.0016462197697342809,-0.010565944101393446,2.3377426899017024,-0.5631122398306374,-1.0733455843083204
24518,1.492,0.9998009713723336,0.006063806647640543,0.002396166798625082,0.01885487407945667,0.03483060840684822,-0.028814600336906613,9.732191661913413,0.007947346253935358,0.0008907592561211344,-0.007431331406389227,2.3344920729090473,-0.5649656067031736,-1.0628529492329348
24519,1.500,0.9998010400783879,0.006063939740092723,0.0023818369500350884,0.018853003626651738,0.039901835083004926,-0.06330861892427103,9.753416582522313,0.010199651958895252,-0.0028899511135157866,-0.008988845813286694,2.3301653555473427,-0.5667625946060605,-1.0721455264268938
24520,1.508,0.9998010591747585,0.00606258595548743,0.0023803236612050106,0.018852617426540028,0.011661482333898522,-0.0019919829372391554,9.779621478681085,0.009955832612625268,0.0002708533232234304,-0.008593492179546684,2.339640355167577,-0.5642610327501862,-1.065751901513994
24521,1.517,0.9998009980561113,0.006065996086489616,0.0023707816583495335,0.01885596382610053,0.0020714257530706328,-0.0024096558461646515,9.739348901945768,0.011001520815425589,-0.0017218930408520671,-0.0077822505248940875,2.3304239698372617,-0.5638515824228483,-1.0741245406957396
24522,1.525,0.9998010084411796,0.006071809579843089,0.0023799820552084577,0.018852382709977057,0.034697250641751845,0.046247748955598446,9.730008045095856,0.011720198372445466,0.0028119264899305087,-0.009360444467977853,2.3296610597657312,-0.5662534741796158,-1.0699566236101758
24523,1.533,0.9998010214340872,0.0060706331490974685,0.0023780343146572757,0.018852318301030943,0.001902388156891339,-0.0006075931318050046,9.739349214871929,0.009957785064226262,0.00026883646217917644,-0.008593888225823763,2.333063180718704,-0.5618382798098845,-1.0677762513463542
24524,1.542,0.999800995596922,0.006060851294037283,0.0023789487452104256,0.018856719965651022,-0.03616148517664941,0.059330002930701904,9.725255319720231,0.007950185605113388,0.0008875475362799773,-0.007432222560048201,2.335542066267677,-0.5609104374189758,-1.0728942609274923
24525,1.550,0.999801135226231,0.006063471784117297,0.0023831868482303716,0.018847937041228183,-0.00993246087596101,0.013523391459345535,9.763056540098615,0.010921895237795924,0.0016402409110257924,-0.010567607076889215,2.341089403306099,-0.5598458383804551,-1.063585806752519
24526,1.558,0.9998011093324943,0.00605369427390826,0.0023840973069887733,0.01885233787048459,-0.005394631985260943,0.05080039404243418,9.782083956345598,0.007951208715415626,0.000886557969718996,-0.00743242606540788,2.334511906919229,-0.5620615482478062,-1.065566117485242
24527,1.567,0.9998014195135246,0.006061666105456794,0.002381770874935656,0.018833611184975483,0.02258486075150065,0.06285019073803415,9.753695017831486,0.01213177286531196,-0.0001505884745946738,-0.012936172228453694,2.336271017967119,-0.5591968942502249,-1.072416885598446
24528,1.575,0.9998011141662311,0.006071260333822936,0.002381939895523939,0.018846704546340985,0.02256119334301678,0.0638572985239694,9.753688531408686,0.012606802762118096,0.0006141892794043912,-0.005369657631476549,2.338716148473262,-0.556027844989868,-1.072917416933166
24529,1.583,0.999801146231339,0.00606969701977913,0.0023802827227199157,0.01884571640318918,0.05554715808818392,0.040795471253593465,9.746549708712761,0.009961636017899973,0.00026508187439854095,-0.008594593261109763,2.3362226302392317,-0.5620638661570877,-1.0657977477692444
24530,1.592,0.9998011653233828,0.006068370449630615,0.0023787435269838333,0.01884532507878027,0.07184398785423514,0.06548246872602087,9.74186031895929,0.009962248630666205,0.00026447561666968257,-0.008594724929373142,2.3347593899623837,-0.5652398691452892,-1.0660224469790187
24531,1.600,0.999800855654101,0.00607822544478642,0.0023794521574898395,0.01885848393165603,0.04583858698552876,0.04121387169995452,9.70627058976861,0.012608652569558138,0.0006127841098765612,-0.00537008521652492,2.33719574992869,-0.5598620637454259,-1.0653232234471033
24532,1.608,0.9998008554395286,0.006082681341134838,0.002356546348510117,0.018859934766511783,0.050636135868763574,0.07870407499927298,9.72527387627358,0.01125546409773408,-0.00489020984623338,-0.008176498878926755,2.3325780920153876,-0.5674578969219218,-1.068214756430018
24533,1.617,0.9998009071419439,0.006061486723049792,0.002355338315641705,0.01886416810440918,0.10518624044237443,0.04407149702376418,9.734714840013693,0.005145294102797819,0.0003321816139279542,-0.007477948948744158,2.3403959065363162,-0.5650235544352126,-1.0689131941897927
24534,1.625,0.999800971087986,0.006068613897311353,0.0023513475750170485,0.018858984635111993,0.03952088929960446,0.020993155180442143,9.751224743685672,0.011973851236014792,-0.00035811463616427526,-0.009757172604885235,2.338125869600542,-0.5600459277255608,-1.0589665662861274
24535,1.633,0.9998009358929232,0.006066252225518384,0.002363913531422849,0.018860039352771512,0.023081354836848086,-0.0019997598647955228,9.755919847417989,0.009718630847536321,0.0034231866830031665,-0.008202080686076816,2.337501684467877,-0.5694642458070409,-1.0737753511621426
24536,1.642,0.9998012794692126,0.006054015559112427,0.002360649755167669,0.018846161414718118,0.011250484648406818,0.01134607476262968,9.779615579990185,0.007320047406167369,-8.932785246817539e-05,-0.011820282397322614,2.3342694727042543,-0.5632845142643647,-1.0658004360348443
24537,1.650,0.9998015407297995,0.006046569837365725,0.0023492801307900277,0.018836109746669206,-0.010004881136814579,0.023300493630365637,9.763038026355778,0.008367087913827473,-0.0020811507329796656,-0.011007722690404778,2.327962794809014,-0.566755640878216,-1.071429219321366
24538,1.658,0.9998014340135,0.006048476692367209,0.00235267971629713,0.018840737045143417,0.0017171442804097357,0.011425340965266309,9.739342567174162,0.010766484707233648,0.0014307261626467865,-0.007390011700953837,2.326458982997908,-0.5630427025521908,-1.066103986990136
24539,1.667,0.9998014007009245,0.006038977158492525,0.0023533336168398435,0.01884546980673972,-0.043118274631364126,0.04880153622854443,9.770148037586672,0.007957407313934878,0.0008797222999702302,-0.007434313996049486,2.3355083959453737,-0.5574485824422507,-1.068288371917821
24540,1.675,0.9998013919211892,0.0060506221029892155,0.0023411265882921964,0.018843720729134098,-0.03136255462549568,0.03699763357034655,9.746452536855367,0.013024980366044863,-0.0023528596610610576,-0.00894492969540623,2.3367751951399947,-0.5614149220268575,-1.0745895634837184
24541,1.683,0.9998013010609518,0.006045264379072271,0.002333745024907195,0.01885117528365297,-0.005275244315894414,0.06312640821864474,9.782012244396409,0.009005043322373988,-0.0011123204792225531,-0.006621643527486254,2.3328009463817576,-0.5654770450388998,-1.0653020373383484
24542,1.692,0.9998015105961361,0.006043418144143485,0.0023461337148502127,0.01883911259620338,-0.009982232165328585,0.027355248282014747,9.763027531480374,0.009886139463451366,0.003618309276063246,-0.01138447421919361,2.3350181228610385,-0.5606199496118893,-1.0680176861793105
24543,1.700,0.9998017333306052,0.006027454194354769,0.0023374660424586753,0.018833482884305173,0.01792862393422759,0.039241493042806365,9.734626008901623,0.006360700744555936,-0.0014649344199632844,-0.009846303560882265,2.3418003056027152,-0.5610386715763533,-1.0606393862697214
24544,1.708,0.9998016993992044,0.006024875115063948,0.0023490536533320046,0.01883466764360019,0.006143154321104307,0.05255401337241154,9.758310952571058,0.009722795542249908,0.003418511985369937,-0.008204295213308215,2.3352781150997926,-0.5635703662528879,-1.070185195210328
24545,1.717,0.9998017627216528,0.006032231813370344,0.0023457844389069443,0.018829358284136885,0.0177195472954572,0.0407769029850574,9.734620084057767,0.01198210576576146,-0.0003651227762925523,-0.009758444785160334,2.3338150612081,-0.5640609434050805,-1.0704353907409452
24546,1.725,0.9998020524503206,0.006018734253363621,0.002355646761935548,0.01881705828356206,0.027250200106421447,0.04292470079925894,9.774887665672154,0.007078561448864533,0.0030646999304181186,-0.011429373805395578,2.336516733347021,-0.5621287676169713,-1.0726314098410166
24547,1.733,0.9998021952859422,0.0060143283762103695,0.0023489689157872337,0.018811711794183526,0.050573346888807776,0.018266047817843852,9.727516870900036,0.009173513371009051,-0.000916889715868621,-0.009802514820676268,2.334522411234108,-0.5650050111609601,-1.0670030419083854
24548,1.742,0.9998024845433082,0.0060008357448518915,0.002358825356557512,0.018799409946299812,0.05506525526762591,0.05548068467197212,9.746479911806272,0.007079684149049983,0.003063276626657144,-0.011429795223603365,2.3347651334988697,-0.5596318415796598,-1.0668081267637213
24549,1.750,0.9998024667721196,0.0060198453785023824,0.0023576705346366896,0.01879442171641625,0.026931437040704147,0.045146735808994296,9.774878543388365,0.014795745417813647,0.00018322593084939916,-0.009714934701993487,2.3376474787799193,-0.5720221866325643,-1.0603212997329317
24550,1.758,0.9998025385930676,0.006019862603266402,0.0023429258105409434,0.01879243932389896,0.017396393742947977,0.0447780782114556,9.734603083397483,0.010223232797907537,-0.0029092882285026156,-0.008988992256626421,2.329853101372097,-0.5710688472395585,-1.0628289121172745
24551,1.767,0.9998024797278409,0.0060180829143248096,0.0023554142359397323,0.018794579853618338,0.0010892149504304616,0.02169661198696383,9.739325191820885,0.009726497151457975,0.0034144825648681704,-0.008206034054861566,2.336226165565735,-0.5625567612185615,-1.0662813582716575
24552,1.775,0.999802704377298,0.006001939982684987,0.002346348176600826,0.01878892457061099,-0.015273003027356192,-0.001543055605118864,9.744051019846449,0.006366497345630898,-0.0014710454005834748,-0.009846641895898546,2.3404122560523115,-0.5608942120540048,-1.0711497054817347
24553,1.783,0.9998025265871818,0.006008465514607007,0.0023418463812330606,0.018796859513617842,-0.03654580636956865,0.010461038107778167,9.727458859588253,0.011822747182752924,-0.0005665591333084023,-0.00657847689166767,2.3398613571501694,-0.5632543814437043,-1.0625857879343712
24554,1.792,0.999802294812586,0.006013621377616036,0.0023501773412419632,0.018806496533882014,0.006083547294382699,-0.0111203865834777,9.760644804533698,0.01157432624643034,0.0025950762625628863,-0.0061874257392283555,2.340853870303079,-0.5644958907345153,-1.0647641678334545
24555,1.800,0.9998023087683694,0.006012672153217206,0.0023495856407347287,0.01880613204074237,-0.027103484289845305,0.013688236089955372,9.767726009600237,0.009977641943823324,0.00024983125548967813,-0.008597961710693243,2.3357435392339774,-0.5584135113816644,-1.0670567003478506
24556,1.808,0.9998024451950874,0.0060153674890067845,0.002353733201185519,0.018797496533173856,-0.017539866972814122,0.01595135784495949,9.807994545569926,0.0109427736978056,0.0016173034277136781,-0.010573955387879534,2.327685532596267,-0.5554816380149182,-1.0668992861146664
24557,1.817,0.9998022604934215,0.006000280735868012,0.0023621468058571825,0.018811081994484197,0.021993811930452273,0.015223959418159854,9.75591068486051,0.006752511087025646,0.0026648172056585647,-0.0050699039841317125,2.334289188105701,-0.5620893631591849,-1.0684973793557058
24558,1.825,0.9998022342402956,0.005990570306063534,0.002362992652500311,0.01881546548044519,0.059480282813710074,0.02846694719971624,9.767770298779954,0.007966881101348256,0.0008700862104795692,-0.007436606355223048,2.3348078624107957,-0.5611522491311496,-1.0726531740449672
24559,1.833,0.999802307558222,0.005990641287809773,0.0023481115842835572,0.018813409850512944,0.03820248823437051,0.040462067998997264,9.751168647353383,0.010229652960534064,-0.0029146797941199142,-0.008988820637391653,2.3343084121281015,-0.5679739710762113,-1.0711271051034368
24560,1.842,0.9998025165840808,0.005988842620590989,0.0023604432261292232,0.01880132718670889,0.04989167506472193,0.0286074725499681,9.727495475882726,0.009897120534489563,0.0036042574717807378,-0.011389210304994488,2.3293799402884843,-0.5591250390624967,-1.064899040801426
24561,1.850,0.9998026036933,0.005983291110448196,0.002367071013864773,0.01879762885052351,0.075557811540812,0.054706799173194015,9.763020919096132,0.008933157004059968,0.002236032179212694,-0.009413186883560375,2.3352633976942085,-0.5698991931364756,-1.0681719463907982
24562,1.858,0.9998025953163857,0.005995014041677825,0.002354812216334581,0.018795878928264138,0.0659208008507941,0.05416981969304118,9.722746026968068,0.013043528945538455,-0.0023657835395055776,-0.008945373056182296,2.3371887470521044,-0.5578997551366566,-1.0643652738316747
24563,1.867,0.9998028069563006,0.005986317819076405,0.0023568904602879197,0.018787130399024608,0.0776933925894229,0.04235437747188341,9.69907448300944,0.008136077960441633,0.0010615564621575208,-0.010618532738790343,2.3352440889512835,-0.5652352333267262,-1.0655306314063204
24564,1.875,0.9998027533763918,0.005989587042622073,0.002347078315889165,0.018790167945603387,0.016642643608250293,0.055827345074378455,9.734547305269594,0.011031832021604897,-0.0017446915950838473,-0.007784042966361098,2.331141858066358,-0.5672508538489713,-1.0721337519810215
24565,1.883,0.999802796867417,0.005968541539081337,0.002345405390172963,0.01879475888494031,0.0329570276805207,0.08038787804300723,9.7297919232196,0.005158704632703463,0.00031574232028120584,-0.0074808451567553,2.334023706492037,-0.5610850297619845,-1.0655789582502257
24566,1.892,0.9998030132279407,0.005959595862189613,0.00234701002866243,0.018785885696851943,0.004910083349964382,0.06970677589555735,9.758204196710794,0.008137625659840154,0.0010597033380429788,-0.010619012531970081,2.337005069327054,-0.5611522491311496,-1.0726371118548275
24567,1.900,0.9998030795040022,0.005966872514510766,0.0023430395753314473,0.018780543449502602,0.021714049299706082,0.02271253731800269,9.755896754215492,0.011998741513663074,-0.0003793269274567849,-0.009760874098831824,2.3337795385020206,-0.5615732890048953,-1.0655761072433205
24568,1.908,0.9998033482548456,0.005959232838354945,0.002331477190135779,0.018770097935024554,-0.011282778914224405,0.04744960379189454,9.762949131738132,0.008389834727405293,-0.0021044048592263292,-0.011008832355314732,2.3418519575514236,-0.562570668674251,-1.0677050490437465
24569,1.917,0.9998034187053165,0.0059594686634907275,0.0023172027210975263,0.01876803798909226,0.01028584524939758,0.03698616534458639,9.77955328515158,0.010237304938412184,-0.002920580349527789,-0.008989119107725381,2.327728312340508,-0.5562696567020418,-1.0727512869379603
24570,1.925,0.9998035622709488,0.005955040642939635,0.002310603057037719,0.018762608421423837,0.012530664967241556,0.02362588873032194,9.715621499028689,0.009188929616533314,-0.0009322366228218833,-0.009804578545718201,2.3404065633481403,-0.5657698507552682,-1.0703709792390803
24571,1.933,0.9998036630470609,0.0059421402670244315,0.002306213610186254,0.018761868390718306,0.038466687870777026,0.04966903551196408,9.75112505637782,0.0071752652046892336,-0.0003099951648846349,-0.00864313505048198,2.3455531965521543,-0.563109921921356,-1.073044351200378
24572,1.942,0.9998038064281326,0.0059377173323549685,0.002299609187862559,0.01875643788894453,0.022267036216719834,0.026427473480899737,9.755886150088465,0.009190132532484895,-0.0009333630084880273,-0.00980481587864579,2.337942056322651,-0.565251458691697,-1.0672198615304853
24573,1.950,0.999803854344315,0.0059165560449740764,0.002298255204943715,0.018760736281714575,0.031929850153592204,0.028490276700729403,9.796152473423472,0.005161703300775336,0.00031197014911889167,-0.007481775035237325,2.3396423769924044,-0.5608455359590923,-1.0660284744754407
24574,1.958,0.999803918400864,0.005923809119546045,0.0022941619841186397,0.01875553402557849,0.006048437095628678,0.003800678479936202,9.760650421261062,0.012003450245031086,-0.00038337395438508865,-0.00976219049021931,2.334497494507537,-0.5639960419451968,-1.063594589918
24575,1.967,0.9998039928261641,0.005916980618814232,0.0022693626483258397,0.018756739119245275,0.03939393709215793,-0.019258190772465194,9.75360509779078,0.008478730917126477,-0.005463636201519123,-0.008216620590011915,2.340911604670375,-0.5555372678376757,-1.072661867339169
24576,1.975,0.9998041295739005,0.0059197296368073355,0.00227345500233098,0.018748084978354354,0.0395522753665962,-0.01846529904024395,9.753605990895842,0.01095513512672303,0.0016038982673534786,-0.010578458903039935,2.339658218185247,-0.5640400822215463,-1.0681954503469024
24577,1.983,0.99980410175845,0.00591717399883965,0.002285206671691327,0.018748946352108463,0.006238502993863308,0.0062670899600446315,9.760649028554209,0.009738309350323226,0.003400670758466574,-0.008212757993663214,2.339922016856186,-0.5635773199807327,-1.0708836554379226
24578,1.992,0.9998041720637609,0.005917277844876944,0.002270396342179036,0.01874696368093407,0.0062187099185806545,0.007080187709900367,9.760648485445042,0.010243742305964865,-0.00292574854092395,-0.008989571073035246,2.333989680343527,-0.5627498968358227,-1.060924394446218
24579,2.000,0.99980406861403,0.005912373096485614,0.0022635879085025293,0.018754849958898225,0.006383107269757995,0.007864303399475824,9.760647778172686,0.009026399261400789,-0.0011284885215722843,-0.006623939986825117,2.342051578133948,-0.5610479432134796,-1.0616140939761518
24580,2.008,0.9998044538254732,0.005908726805024569,0.002257723052740638,0.018736161424058193,-0.010426189905580021,0.05641160608445113,9.762902414118823,0.009363334234978458,-0.0007482427115100036,-0.012987540676614482,2.338648435058345,-0.5544749867084364,-1.0636546462721377
24581,2.017,0.9998045138712314,0.005887436573832397,0.002257147730380909,0.01873972831777097,0.00132613960557663,0.04430711006957455,9.739248543858595,0.005164754072398698,0.00030794089708819326,-0.007482696207963236,2.333072069867277,-0.5623381285992032,-1.068992231144435
24582,2.025,0.9998046742176822,0.005904493539703754,0.002237413665545874,0.018728169921382768,0.017707490940959844,0.06901428404180769,9.73446087026732,0.014277826910836889,-0.004175169933771135,-0.01131313449993769,2.3333658510370694,-0.5670414928667393,-1.0757818541165698
24583,2.033,0.999804797990065,0.005871668572564883,0.002232799070718769,0.018732432637782667,0.013395776668474996,0.033074887477124865,9.715592770074883,0.0023526580178851353,-0.0002442916224845082,-0.00752532408283592,2.336963311705441,-0.5713523813188003,-1.0669249309993694
24584,2.042,0.9998049404139767,0.00586727699878633,0.0022261652802516223,0.01872699582339895,0.02966554299127644,0.057463390822787876,9.710803880427964,0.009197438226466594,-0.0009407063982121057,-0.009806365161926671,2.3355479114687934,-0.5538376321246142,-1.073693847796291
24585,2.050,0.999804962031227,0.005859057871906224,0.0022138414938419827,0.018729875718514574,0.027692844488003854,0.07239091265896155,9.774712612099325,0.008232489598830228,-0.0023056831870446634,-0.007828526472228519,2.3325803171694766,-0.5611128446733632,-1.0685191435596568
24586,2.058,0.9998049805951044,0.005857872893162913,0.00221217775691809,0.018729451993134253,0.029872497967248675,0.05891039467332437,9.71079457599071,0.009995436539718187,0.00023321188301703193,-0.008602791168779836,2.3445553295771755,-0.5618614589027001,-1.0701336020056271
24587,2.067,0.9998050774524697,0.005845113390309221,0.002208286991806271,0.018728727086427026,0.049156070938162474,0.06266748152241448,9.791321093311206,0.0071829928316401856,-0.0003186596715612971,-0.008645082327292912,2.3340827001994326,-0.5596967430395435,-1.0736489275866667
24588,2.075,0.9998051739656889,0.00583225810263773,0.0022041029125435983,0.01872807537400646,0.051279635312928035,0.04902423026738683,9.727406786550697,0.007183443298451045,-0.0003191025936164084,-0.008645178841902797,2.3338582306667583,-0.5592339807987298,-1.0763407020532738
24589,2.083,0.9998055681208987,0.005821334943023804,0.0021868921971995277,0.018712442824144027,0.06106446368180949,0.05116452100490385,9.76766800246581,0.007607008183335502,-0.003294403815676331,-0.012214521791037549,2.3304222699504304,-0.5626286164062898,-1.0738920068339304
24590,2.092,0.9998056368180118,0.0058214727338445115,0.0021720566316091633,0.018710457293417283,0.02888762782992284,0.004045852037650992,9.777259079300741,0.010251850612647074,-0.0029319940890879504,-0.00899060535891187,2.337995713152081,-0.563612088619956,-1.074559779418608
24591,2.100,0.9998058481078649,0.005812669146530402,0.002173113958258305,0.01870177912475523,0.07313230153473554,0.039948855531953514,9.744015078043203,0.008150554384407843,0.0010429725683059538,-0.010624090848082404,2.335294176566001,-0.5635912274364219,-1.0723823030973312
24592,2.108,0.9998059483345,0.005792661030415354,0.0021582176360766094,0.018704353765194266,0.0245760669561873,-0.03127657914506419,9.75841730872924,0.005423160181338111,-0.0028603855590453487,-0.00787092758320674,2.3367752629164147,-0.560438403541036,-1.0745988348731157
24593,2.117,0.9998061159157531,0.005775349038678697,0.002161933557636861,0.01870031989647661,0.04601887157300268,-0.04195771442504681,9.775041039156354,0.0061345492614985715,0.0016661961155987296,-0.009462685623474605,2.334354845807581,-0.5675459774746212,-1.077478941360589
24594,2.125,0.9998062572735895,0.0057709822841031325,0.002155276660803976,0.01869487797684985,-0.0033543399481165857,-0.04140540919879366,9.786866087115857,0.009203267442110337,-0.000946171403653073,-0.009807696487261425,2.3367542203984484,-0.5550397369576388,-1.0717203503321302
24595,2.133,0.9998063531113808,0.005758128716129601,0.002150660612125228,0.018694247530766216,-0.03433712866000132,-0.031146588638710136,9.729981166319076,0.007186732490550622,-0.00032243662337566733,-0.008646080002890584,2.3357049611126612,-0.5742332606813524,-1.0617794552004698
24596,2.142,0.9998064670522141,0.0057667613900758965,0.002133350990089771,0.018687474874725794,0.013063500284580762,-0.016012890616391995,9.782063911974461,0.012273202039823787,-0.0035592676078035888,-0.010152742744856134,2.3359688953364404,-0.5718174614688957,-1.0644862030702846
24597,2.150,0.9998063299446874,0.005776866438218039,0.0021483039711514807,0.018689976103192816,-0.02454640253811062,-0.02779067572190132,9.770250782742146,0.012559642174325704,0.003943194963449299,-0.008176657605123115,2.336981683046263,-0.5638075421464988,-1.0694380152527578
24598,2.158,0.999806210515314,0.005750272524100179,0.002154003407199602,0.0187039046786586,0.012803490696617,-0.014326131330065875,9.782066867419251,0.003949435464386276,0.0021010361170666846,-0.005119511025727081,2.336284922055659,-0.5645862891964959,-1.0743188777452075
24599,2.167,0.999806022812278,0.005764187832803586,0.0021597664518563753,0.018708989705393326,-0.02051124632537992,0.010235096256966947,9.789075803812231,0.013612436990366853,0.0019548155651758167,-0.007359667217026711,2.3410964909032095,-0.5605874988819475,-1.0645553456046946
24600,2.175,0.9998062100524641,0.005768318589554915,0.0021506295732010173,0.018698760216029283,-0.030930751985692034,0.08137970441130726,9.746184386437074,0.011225071840367052,-0.0015750648533300713,-0.010969828749385126,2.3404066650127704,-0.5643050730265358,-1.0703848863231762
24601,2.183,0.9998063482373506,0.005764176434487788,0.0021446396061530638,0.018693336119753424,0.002318728680481898,0.05836611035819104,9.739174253018053,0.00920797133702094,-0.000951044652615935,-0.00980830137288639,2.340428165021574,-0.5631122398306375,-1.0733259527425938
24602,2.192,0.9998063665809314,0.005763030358435263,0.002142941863131034,0.01869290307832688,0.023742816878628104,0.04801927139548824,9.755800287119794,0.010004556757670015,0.00022488339248450434,-0.008605212525728156,2.3289573636749616,-0.5640933941350221,-1.0738888078765942
24603,2.200,0.9998063804944759,0.005762007339841373,0.0021408873299604853,0.018692709685640664,0.04645842484202135,0.09511744241650637,9.705889077041183,0.010005178503876933,0.00022427305765159475,-0.00860534566434871,2.330377739487043,-0.5613500205669739,-1.0678005186067794
24604,2.208,0.9998063255691148,0.00576538537324921,0.002131000703251264,0.018695735328857193,0.06791490282202813,0.08485161146014907,9.722512945145898,0.0110578581076892,-0.0017633618062341944,-0.007787845363296233,2.338215066080158,-0.5606500824325494,-1.0711680855192238
24605,2.217,0.9998063754606934,0.005744174447783809,0.0021293561454256743,0.018699783166422065,0.07318387963205522,0.0504575025713056,9.7439659391409,0.00517361406961191,0.00029653190132489265,-0.0074853362797410875,2.3330771525836647,-0.5662511562703342,-1.0696875148825131
24606,2.225,0.9998064397463744,0.0057515214562724746,0.002125184011001027,0.018694561656738037,0.06142463504078714,0.06387717897251043,9.767590882398459,0.01202537594851825,-0.00040256346127144,-0.009767503407454081,2.335267356623338,-0.5642888476615648,-1.0687135030769446
24607,2.233,0.9998066481639388,0.0057358380386180845,0.002116118544594245,0.01868926139500252,0.1012014597197869,0.0631374096230388,9.715500306811036,0.0063973992066174035,-0.001506719162249495,-0.00985024098746108,2.3350518270715517,-0.5635935453457036,-1.0726282108836804
24608,2.242,0.9998067397050382,0.00573018643510106,0.0021225900161096064,0.01868536366853131,0.09021029831660167,0.004776440271492653,9.74179430832913,0.008955564756642175,0.0022083949134147777,-0.009424044581120039,2.34409383048391,-0.5618962275419236,-1.0737990178595525
24609,2.250,0.9998068313867571,0.005717464863146454,0.0021183276080993484,0.01868483866821178,0.06219150926746712,-0.0057842813571533595,9.770253262729366,0.007194115283638004,-0.00033065772864017623,-0.008647411035498574,2.3343075594465232,-0.5545445239868833,-1.0710104636090945
24610,2.258,0.9998068526234315,0.00570917775181224,0.0021059126288720687,0.018687639461057566,0.052657388031783645,-0.006765862005654611,9.729990872928596,0.008247109068623108,-0.0023177599756797097,-0.007829468999372282,2.336029261516346,-0.5506546754085678,-1.072743918042022
24611,2.267,0.9998070399922685,0.005691445997423851,0.0021097520640865762,0.01868259003953109,0.024744509367842542,-0.017402122888497875,9.758451488615888,0.006142333335159218,0.001654988305970888,-0.009465759829315516,2.3392680356098228,-0.5651440857178536,-1.0816165187536664
24612,2.275,0.9998069386331406,0.005686358159467669,0.0021023191697637947,0.018690399835690222,-0.008448056819381817,0.007036736762645915,9.76543814716558,0.009043542815613129,-0.0011411101767253996,-0.006626713797481167,2.334014156523367,-0.5701062362094261,-1.0642725824055208
24613,2.283,0.9998070622600218,0.005689574899639917,0.0021061747218194364,0.018682371918138874,-0.012872601689909554,-0.028815121605443125,9.746654213884524,0.010977278068215366,0.001580106412257892,-0.01058671141139347,2.338464418451193,-0.5626100731320374,-1.0718801273483036
24614,2.292,0.9998072785106235,0.005673580988016126,0.002096947128103475,0.018676700155416323,-0.02023737605116697,0.02127924962274154,9.789058592249734,0.006401296015380952,-0.0015108236070496572,-0.009850627938227993,2.334291599644945,-0.5530588850746169,-1.0688272628061875
24615,2.300,0.9998073503533629,0.0056808725697031805,0.0020929072733195274,0.018671090096207835,-0.05249774360261837,-0.025863541515506735,9.798743100148515,0.012031547756683254,-0.00040750779160366206,-0.009768771788886528,2.3299123322969635,-0.566262745816742,-1.0709313313166062
24616,2.308,0.9998076126212745,0.005673372414612334,0.0020812060104969136,0.01866063159528038,-0.08344521184764937,-0.01558244369891063,9.74184331300854,0.008422286646203012,-0.002138041243282098,-0.01101253181662534,2.336778798242918,-0.5609312986025099,-1.0750824453755288
24617,2.317,0.9998075033726518,0.005675622137488797,0.002084162076209224,0.018665470300480512,-0.05023162187524414,-0.03861744240688138,9.734868095516672,0.010808202208927834,0.0013949693455358864,-0.007404848529535477,2.3355205662588734,-0.5621032706148741,-1.0699531945080747
24618,2.325,0.9998076435054889,0.005671321629419271,0.002077441979193647,0.018660019662383183,-0.045854686884951736,-0.00113358679911758,9.753639809005124,0.009218746345205758,-0.0009615750224373954,-0.009810102410773385,2.332335945850199,-0.5645306593737387,-1.0684884783845592
24619,2.333,0.9998075342811594,0.005673654449296989,0.002080874664257418,0.018664779678589125,0.013116388771862426,0.0014700780313075096,9.782076835728454,0.010809347592938565,0.0013939193062869877,-0.0074052090643649,2.3267765571070123,-0.5592316628894484,-1.0761483349007244
24620,2.342,0.9998073083508102,0.005678939135084296,0.0020891133075380103,0.018674352042215275,-0.020232504438955044,0.02618875169467713,9.789046701789959,0.011604923511991902,0.0025714329880002695,-0.006202879002039731,2.3292031807194937,-0.565560489773036,-1.0741172392032607
24621,2.350,0.999807202420888,0.005681081716008485,0.002091542498416615,0.018679099224294202,0.002280896500244195,0.0733460290832005,9.73907296850385,0.01081063775727211,0.0013926189944842289,-0.0074054273709117735,2.3282002818604415,-0.5596666102188833,-1.0705181598124798
24622,2.358,0.9998070250319229,0.00568770317804599,0.0020866085641303546,0.018687129102010022,0.0450743394886351,0.05212620423943819,9.772361961623982,0.011864773698559967,-0.0005939245019720549,-0.0065865932863299744,2.334531571488361,-0.5615987860069924,-1.0682561072640555
24623,2.367,0.9998069956020782,0.005685371480889558,0.00209806428142922,0.0186881305256041,0.035318215778751674,0.05134347413582067,9.732097127117596,0.009758252558959896,0.003377197933971707,-0.008224851228852756,2.3389313221988433,-0.5618498693562924,-1.0689540343320942
24624,2.375,0.9998070137760809,0.005684281246704637,0.0020963149250676225,0.018687686175658736,0.07273918582348078,0.06503604326894477,9.743882872226244,0.010017701168979955,0.00021237489005700183,-0.008608091027067888,2.3328207634478337,-0.5628171162049878,-1.0680128877433062
24625,2.383,0.9998071023000693,0.005678868031999837,0.0021031121192628508,0.018683831716968857,0.04470565522435609,0.05459411058446693,9.772350178078597,0.008964616646212606,0.002197497987735293,-0.009427464171497498,2.336040652401012,-0.5665393261681392,-1.0743021196542064
24626,2.392,0.9998070740344853,0.005669288978471638,0.002103829918167579,0.018688172001436153,0.07250853870755328,0.06650594995371159,9.743874668444594,0.007997873054666321,0.000837957347128003,-0.007446658782836224,2.329142792119158,-0.5613314772927215,-1.0658564572572988
24627,2.400,0.9998072054745712,0.005672423688535258,0.0021077831418066803,0.01867974145575395,0.0444759824548337,0.05606430275009437,9.772342903192817,0.010986978316489098,0.001569552278349666,-0.010589355666923705,2.3304223546709557,-0.561407968299013,-1.073903596070677
24628,2.408,0.9998071014494454,0.005674536231664542,0.0021110153441344834,0.0186843020750342,0.05613338160047328,0.04421698276338051,9.748732750394119,0.010814891284411073,0.0013888482019136575,-0.007406352599567971,2.3309102331601523,-0.5670229495924869,-1.0738467162060557
24629,2.417,0.9998071399946201,0.005660606016046716,0.002119365236964932,0.018685519695813498,0.03454038790092158,0.055992138797617705,9.732074282217535,0.006945475288459952,0.002821812204473596,-0.008266554257726641,2.325070814838768,-0.5646071503800301,-1.0765980812707039
24630,2.425,0.999807058098,0.005677082580444237,0.0020987760702274546,0.018687226915866176,0.028091877845787042,0.03458633364985661,9.777201064626563,0.01415136558197716,-0.00438883130053886,-0.008130778935405475,2.3323802899284303,-0.5684946810490639,-1.0745544702908674
24631,2.433,0.9998070161141803,0.0056749248344373305,0.002109354036820573,0.01868893743717184,0.028130888635234223,0.03556246584832904,9.777197447533318,0.009762454251691359,0.0033724558480504843,-0.008226689370094813,2.334782301808232,-0.5694202055306911,-1.069156643855307
24632,2.442,0.9998071099508847,0.005662168324736003,0.0021050659263106434,0.018688270090307504,0.023650243685601896,-0.0004458209754989288,9.758469708613712,0.007206578796956917,-0.0003443647630664345,-0.008649253372054756,2.3337635278681264,-0.5608200389569951,-1.0633859528983656
24633,2.450,0.9998070695665474,0.005660163177539748,0.002117019802083736,0.018689687656959945,0.007388016548868878,-0.02371347287432668,9.76334705771205,0.009763448218491252,0.003371457671333165,-0.00822704548477984,2.336300695472082,-0.5687573539447718,-1.0764765822272722
24634,2.458,0.9998069654880593,0.005662290810591148,0.002120238999319815,0.01869424539587528,0.013699961020900438,-0.0006250422417286274,9.71821022877746,0.01081840068672741,0.0013857195810448423,-0.007407180531786211,2.330187211382352,-0.5604430393595989,-1.0751352676406472
24635,2.467,0.9998070503041145,0.005656827474229471,0.0021260278119502535,0.018690705467041498,0.028474862749870353,-0.033103153968100235,9.780013852543835,0.008970383064193068,0.002190877782867885,-0.009429192071897383,2.3321309545015,-0.5662905607281207,-1.073844746309137
24636,2.475,0.9998068730127544,0.0056634890382187,0.002121067726638854,0.01869873364887488,-0.01443457179622231,-0.01019168268647716,9.746689292425067,0.011874120811280298,-0.0006003422966974679,-0.006587223184615044,2.3324095044662325,-0.5590107123608085,-1.078550835914386
24637,2.483,0.9998070094211485,0.00566641681064404,0.002124288578374779,0.018690185416527814,0.023084018486100605,0.0036710573803486668,9.75847038615964,0.010994105817853437,0.0015618412867364018,-0.010591060533857666,2.331143862947081,-0.5640794866793327,-1.072408007095119
24638,2.492,0.9998068320510807,0.005673084446483342,0.002119323579025347,0.018698212866829243,0.0391758009595989,0.028565308333558293,9.753583160325029,0.011875567008539333,-0.0006014663662067131,-0.006587412376105016,2.3359535285785387,-0.5617872858056905,-1.0623841269246046
24639,2.500,0.9998068929461588,0.0056807825729221035,0.002115457662033975,0.0186930566143835,0.017789853259493258,0.04056104179954877,9.736913022159209,0.012050314784154527,-0.00042473521667761734,-0.009771046246578083,2.3367848467732952,-0.5509289378506835,-1.0759098464125194
24640,2.508,0.9998068621507763,0.00567839622072593,0.002126835321590655,0.01869413769326484,0.03909370635414855,0.030429934478787085,9.753577849581463,0.009767344644443858,0.003366840477709321,-0.008228794662398566,2.338506927089753,-0.5673041657624471,-1.077695042614008
24641,2.517,0.9998066884591379,0.00569203596031371,0.00213207857337951,0.01869868123575807,0.010953877050849091,0.020173719530157418,9.782058806501365,0.013639954351821996,0.0019333560537981881,-0.007368226006793229,2.3362457962466565,-0.5625822582206587,-1.0689667123557725
24642,2.525,0.9998067066320477,0.00569099669687223,0.002130281433845148,0.018698230696726242,0.010865510094056494,0.02113918369601515,9.78205686379,0.010029653992597908,0.00020086110725105302,-0.00860985199218245,2.333309472198179,-0.5564697460471475,-1.0680695823988022
24643,2.533,0.9998064381415943,0.005687869212119672,0.0021412785247761097,0.01871227727253931,0.022524405940523167,0.009182214356907265,9.758468063810586,0.00959461534388954,0.0031883650134639113,-0.005045848043313678,2.3279238045528516,-0.5627985729307353,-1.0660955967107253
24644,2.542,0.9998065267399797,0.005689466002963494,0.0021583398131032124,0.018705096471046095,-0.004531234273493152,0.05598905106084763,9.720221184319811,0.010738233168545941,0.0047203359636561505,-0.010211874322065155,2.3323324444119056,-0.563549505069354,-1.0680095035768447
24645,2.550,0.9998062717870766,0.00570095309008396,0.0021454218521281677,0.0187167089566579,0.023300150609601784,0.06815429708578048,9.691730200123247,0.012935773266287344,-0.002589763424960116,-0.005766541920885696,2.3281842373383372,-0.5594016194138939,-1.0683233697728258
24646,2.558,0.9998062407226042,0.00569858154359737,0.002156782360683052,0.018717784868255507,0.004971277182239876,0.05962845953183107,9.760469629456088,0.009770884629995449,0.003362677901367386,-0.008230100963987618,2.3396763692527034,-0.5596689281281649,-1.0706784025847493
24647,2.567,0.9998062174339291,0.0056890550247530435,0.0021575983462453034,0.018721832249040563,0.06594997783921111,0.04779688291799711,9.725074199293744,0.008009064810558384,0.0008260784740732441,-0.007448888043403961,2.336775127363574,-0.5623914405126792,-1.074580292094321
24648,2.575,0.999805990357359,0.005694408070578565,0.0021657802303258014,0.018731384312451624,0.01645997117991267,0.048386448514019145,9.736879618078335,0.011620927931783598,0.0025576756842361163,-0.00620797056033058,2.332078946726585,-0.5698852856807864,-1.0667304087407758
24649,2.583,0.9998061203681055,0.00569052242607705,0.00215900222912073,0.01872640751374372,0.07536842993496812,0.05121890459200135,9.765326797696504,0.00924063427314508,-0.0009841102592569129,-0.00981139817351129,2.338008595117994,-0.5580133326914529,-1.076321951597534
24650,2.592,0.999806135689762,0.005696667612530711,0.002167873523659469,0.018722695842305532,0.05918028355020738,0.028110787076574748,9.770233241332443,0.011797347232348427,0.0027315369371663486,-0.00939217681052627,2.3398859688828493,-0.5686576838456648,-1.0659525186724685
24651,2.600,0.9998060298702884,0.005691832901610267,0.0021605767205561724,0.018730658863680416,0.0870329928960428,0.040167247360586036,9.741741574653352,0.009066698328351391,-0.0011601402899465514,-0.006627709156752347,2.3403708881451153,-0.5654793629481816,-1.0654908351153114
24652,2.608,0.9998062606363349,0.0057118147332202536,0.002159482751733341,0.018712375559725845,0.09238828549998863,0.006199132895832583,9.763335162053783,0.01505446375259801,0.00029144164436267214,-0.012916100773092494,2.336715879494603,-0.567441671556951,-1.0664755550476401
24653,2.617,0.9998061466569974,0.005707277994905251,0.002152748707201968,0.018720623861924687,0.0924231240789633,0.007187972365467559,9.763334150276235,0.009068023025586217,-0.0011612923283845287,-0.006627892608007159,2.3319569114656447,-0.559301200167895,-1.0834345494137416
24654,2.625,0.9998062111471333,0.0057147829022506655,0.0021484386330597547,0.018715384565494566,0.033512786130143316,0.006033408154392414,9.734882482393353,0.012062507382332265,-0.00043622957011815787,-0.009772315444868071,2.3345155947426783,-0.5603572767161815,-1.066070588613799
24655,2.633,0.999806188630885,0.00570514810224187,0.002148566586684543,0.018719511802868516,0.04312117289466605,0.008649608999666894,9.775140472947063,0.00801323099318215,0.0008214910830058934,-0.007450014746989757,2.3406259162762164,-0.5628078445678616,-1.066979285339696
24656,2.642,0.9998060350151152,0.005705985296983092,0.002164901847780669,0.018725578205625124,0.011843304476698128,0.018576689116904993,9.718194934267443,0.010569450340688433,0.004537496480620916,-0.007031858632185892,2.3348021188743093,-0.5667602766967791,-1.0718674942602646
24657,2.650,0.9998061651948188,0.005709234550480128,0.0021690896135194457,0.018717150678642092,0.030840235386739863,0.023066322573639216,9.798710791315399,0.011008923455015278,0.0015452883576235778,-0.010594587748604401,2.3357896509754608,-0.5626239805877267,-1.0733644975053656
24658,2.658,0.9998063522800038,0.0057135678325826176,0.002159766983353132,0.01870691021396518,-0.016316837530657446,0.009154761155873338,9.746687351862807,0.011272693036826332,-0.0016203088088767499,-0.010973215786759137,2.331626845105044,-0.5630960144656666,-1.0716813398132619
24659,2.667,0.9998063191456414,0.005711319568479672,0.0021708516124651885,0.01870808457613382,-0.006766300984263999,0.011824761068660875,9.786944766912482,0.00977796291848323,0.0033545247111437023,-0.008233314353133934,2.340884259460455,-0.5638029063279355,-1.0689212140509528
24660,2.675,0.9998063835700635,0.005718845646834132,0.0021665236515288487,0.01870284342785523,-0.03794548961917562,0.02185222116289746,9.72999307897046,0.012067543901647076,-0.00044055688322466814,-0.009772769264414127,2.331595998456831,-0.570380498651542,-1.0674617117173315
24661,2.683,0.999806511101936,0.0057150960721133685,0.002160067888642398,0.01869791811348167,-0.0003565730857210586,0.03573731594272331,9.741751126626355,0.009249496730294925,-0.000993088475802601,-0.009812305925857393,2.3340628323010395,-0.563089060737822,-1.070931123639661
24662,2.692,0.9998065783016676,0.005715466288613504,0.002145048213890783,0.01869594068175134,-0.037730041670616415,0.023503226240541176,9.729990067933787,0.010306613690116859,-0.002977051017325526,-0.008989895980138322,2.3313200803047094,-0.5654561838553659,-1.0631156375781055
24663,2.700,0.9998065415175532,0.005713437209559518,0.0021567094951780758,0.018697186368959718,-0.0024142962994999724,0.05196163622967951,9.80556591865143,0.009779944818909193,0.003352134673318037,-0.008234475131102597,2.33504320902866,-0.5591876226130986,-1.071449316643189
24664,2.708,0.9998067582979733,0.005697576261939044,0.0021473336663374613,0.018691512634423552,-0.0002922475762975312,0.03800444826091256,9.741742546845012,0.006432400054376278,-0.0015468812732276167,-0.009851840889503123,2.337499081067153,-0.5555442215655202,-1.073419222263943
24665,2.717,0.9998068358866287,0.005697757122935087,0.0021322126607145526,0.018689038158935103,0.04923880170171514,0.0389394948796765,9.729933208594051,0.010308776776259979,-0.002978705446776704,-0.00899001561983801,2.336972963338742,-0.5608663971426261,-1.0682452139281702
24666,2.725,0.9998068052340714,0.005695430394045813,0.0021435243139190214,0.018690093198860024,0.061043247402738365,0.026972990812978066,9.706369537222795,0.009781247246321574,0.003350650788177098,-0.008235259669417988,2.333842050591814,-0.5609220269653835,-1.0741273692348254
24667,2.733,0.9998068986640529,0.005689951672349247,0.002149845041668444,0.018686037569043523,0.06397642445232855,0.00744936542389896,9.791827642987283,0.008989213144756744,0.002168040769238388,-0.00943563139935506,2.333100725249611,-0.5609104374189757,-1.0729121078054253
24668,2.742,0.9998069167985607,0.005688985298427548,0.0021479817473527237,0.018685575785707224,0.054259943255560286,0.00637873125057649,9.751570464497023,0.010046760208171874,0.00018451484705185676,-0.008612754003678016,2.333550906710955,-0.5696504276964572,-1.0676985108555888
24669,2.750,0.9998070460322585,0.005692285924756725,0.0021517959268243063,0.01867721498216345,0.054189474866238395,0.007238939952391463,9.751570256373853,0.011017346017178825,0.0015363964582225417,-0.010597110088709397,2.334365960110241,-0.561700774015381,-1.0789993082883085
24670,2.758,0.9998068684962663,0.005699047740481932,0.0021467670368653822,0.01868523357712218,0.0112587628796235,0.03003002467242958,9.718166986665938,0.01189774583458678,-0.0006172810904500229,-0.00658969310534937,2.329877148472985,-0.5588924989874491,-1.0661184047659684
24671,2.767,0.999806749115435,0.005679658227204221,0.0021627145159084753,0.018695683233612686,0.0486182562583393,0.043805088259180454,9.729915638555967,0.0057296381685758594,0.004608581922804085,-0.005914180801749913,2.3281788665721628,-0.5596387953075047,-1.0675886826298089
24672,2.775,0.9998068895565975,0.0056755202723903905,0.0021558356254578353,0.01869022304725523,0.058086773371504814,0.0462833706360303,9.770170615466148,0.009256929026898168,-0.0010002640674350576,-0.00981308606027296,2.3318035877299295,-0.5569046933765825,-1.0624608235640778
24673,2.783,0.9998070841262919,0.0056799577986009235,0.002146898071500164,0.018679492470605918,0.02066920713163167,0.03405649910206703,9.758417062642783,0.011285067279370361,-0.0016315718179232023,-0.010974306118462309,2.3357750521786116,-0.5672439001211266,-1.071367473617281
24674,2.792,0.9998071022349937,0.005679007732861669,0.002145020083178183,0.01867902782476201,-0.007176228399394454,0.023729615969662176,9.786922850529004,0.010050603122533123,0.00018091301034597806,-0.008613472840177576,2.3308728750144008,-0.5652653661473864,-1.068736356067827
24675,2.800,0.9998073507779079,0.005679207248716078,0.0021438404204941314,0.018665794484548012,-0.0007493653955207436,0.046665558308702705,9.7417048851935,0.010229301162151734,0.000349242640999732,-0.011798163083806467,2.3401108789622556,-0.5627730759286381,-1.0633210082369444
24676,2.808,0.9998075345247021,0.005690767446937907,0.002145143796712723,0.0186522768474464,-0.016870728290642067,0.023619357465117792,9.746662090738294,0.013050246098491734,0.0009002713379284269,-0.011759595133214848,2.3333236982247163,-0.5572206781857663,-1.0700156136452017
24677,2.817,0.9998074334270075,0.005693107754911625,0.002148867653420148,0.018656552629029818,-0.033028670945060935,0.0005965735808915268,9.751623547244,0.010844911335151478,0.0013618208700566083,-0.007414128238319594,2.3284460141844483,-0.5623543539641743,-1.0707350019023996
24678,2.825,0.9998071088481383,0.0057089767467543824,0.0021274968857789003,0.01867154086393076,-0.03289773597765655,0.001605131471206005,9.75162387875508,0.014018873189301933,-0.004585596515063137,-0.004942663829151901,2.3345260312811362,-0.564277258115157,-1.0674982416475451
24679,2.833,0.9998069844239236,0.00568268307834141,0.0021331097163511384,0.01868557874698186,-0.028569480027407848,0.03912662209037075,9.770201022147472,0.003969056908938087,0.002070948426198496,-0.005131105819309433,2.333065050046586,-0.5606199496118892,-1.0680319636816569
24680,2.842,0.9998069240936227,0.005700618018811148,0.0021444160205543045,0.018682049367870046,-0.027619400710597573,-0.03180321057150523,9.773304581362316,0.01463733395323525,0.003262887301562274,-0.009361184594284224,2.3347719161020892,-0.5647678352673494,-1.067735944363609
24681,2.850,0.999806893193105,0.005691366916739796,0.0021453219501940033,0.018686419129972456,0.00011410281111093643,-0.019690561980003178,9.744791912668058,0.008026719845667486,0.0008075223101762269,-0.007453337701574326,2.3345687940812723,-0.565309406423736,-1.0733479246234894
24682,2.858,0.9998067154857909,0.005698162840684074,0.002140269705897468,0.018694433806417127,0.016165203431189216,0.005112991926835184,9.739819354608338,0.011905788597149358,-0.000623136830881763,-0.006590714731870682,2.3389418773460364,-0.5640609434050804,-1.0703979122972853
24683,2.867,0.9998066016897869,0.005707781613702663,0.0021540518909028243,0.01869600243427798,-2.3844902697594876e-05,-0.01788576393876347,9.74479539606841,0.012610951397646862,0.0038919748594889955,-0.008200987191143138,2.3330541729613965,-0.5630473383707539,-1.066544046616828
24684,2.875,0.9998063013997962,0.005717764238517364,0.0021540040110820577,0.018709011734807823,0.03730663198499938,-0.003750109119882347,9.756535122829474,0.012699157382083834,0.0005589706365699191,-0.005391369925823279,2.3404297801878804,-0.5655558539544729,-1.0735468973676563
24685,2.883,0.9998064331260624,0.005721045802229757,0.0021579636436315996,0.018700510890952246,0.041433108067209366,0.03402095710827337,9.775092399673074,0.011028847240439375,0.0015233014192334974,-0.010600212052166188,2.338905981869645,-0.566944140676914,-1.0654876361579753
24686,2.892,0.9998062551311744,0.005727854759547548,0.0021529010783427212,0.01870852472478384,0.07469412888661991,0.011267557799262667,9.76827194251425,0.011908806463390565,-0.0006256486755559655,-0.00659091668920313,2.3326226224787754,-0.5687364927612377,-1.074306244657169
24687,2.900,0.9998059648678695,0.0057323418176290514,0.0021743381776393677,0.01872017963065452,0.0648743392682962,0.010285908071313741,9.72801723566776,0.011376158180162799,0.005704483684907589,-0.005841980363487433,2.3284745848462576,-0.5621473108912238,-1.0746432893266433
24688,2.908,0.9998057837210822,0.005746321276403969,0.0021799491942958247,0.01872491525138307,0.06876854397942736,0.0481150481059719,9.746564101380015,0.013673101081793307,0.001906349612704318,-0.007377387751222828,2.3365455920586164,-0.5577715209792791,-1.0765791006701992
24689,2.917,0.9998056397307199,0.005739893389323913,0.002184823610118602,0.01873400470582275,0.05135124515833527,0.09671718646001622,9.748379616718697,0.00882290165327078,0.001986168995330467,-0.006254987579480549,2.3414314535950433,-0.5633911380913162,-1.0769783426224098
24690,2.925,0.9998055842026643,0.0057435358061894695,0.0021747393986494487,0.018737024901538592,0.06859773660144887,0.049846436099364864,9.746556602251333,0.011120054731396786,-0.0018119488077829884,-0.00778999526273832,2.328697473100837,-0.5596781997652911,-1.0717352059296728
24691,2.933,0.9998057243277796,0.00574656468601348,0.0021780647818251957,0.018728230816618625,0.058995739359617085,0.048800710072808014,9.706296998156526,0.011033400003047759,0.0015180174593343255,-0.010601188443697706,2.3396970898326743,-0.5697060575192147,-1.0735128480260976
24692,2.942,0.9998057884552266,0.005754199010690375,0.002173640672015532,0.018722976563504933,0.019206363031765896,0.05137837366583914,9.758344225181931,0.012092973826640213,-0.000464239871594262,-0.009776172180771755,2.3355044878485596,-0.5623265390527955,-1.0677537687737222
24693,2.950,0.9998056739842205,0.005756766269875629,0.0021768925653635786,0.01872792166343125,0.019166567862715807,0.052312811064912465,9.758339338048923,0.010855051410143465,0.0013516397304867553,-0.007416588378590583,2.3426522088246,-0.5621704899840393,-1.0769810084201896
24694,2.958,0.9998056462482048,0.005747341492203701,0.002177451945380578,0.0187322315544077,0.02449722664701283,0.018223687742107603,9.780063668735323,0.00803386788548291,0.0007994947692484503,-0.007454789413981119,2.336292382423082,-0.5599570980259697,-1.0753394092390687
24695,2.967,0.9998057161243259,0.005747689566042507,0.0021619578238752206,0.018730189751976364,-0.022523270207600483,0.0038593848633797162,9.728079804255675,0.01033238698341881,-0.0029992073867208683,-0.008989086302336639,2.338920699275229,-0.5606153137933262,-1.0675008849775054
24696,2.975,0.9998058081933415,0.005742254704985624,0.00216817609385488,0.018726222955769777,-0.008697404148787207,0.04343839034399882,9.78685398522571,0.009006274891799067,0.0021469034793179663,-0.009441479503820958,2.3435912176450246,-0.5628542027534927,-1.0718403310572944
24697,2.983,0.999805826129344,0.0057414469723301685,0.002166733909873256,0.01872567992485056,-0.012974491591380448,0.00738819217661076,9.76833294032682,0.010066028904161499,0.00016517731118704997,-0.00861600747229175,2.3347988207652772,-0.5628495669349295,-1.0714163336207423
24698,2.992,0.9998057703725275,0.005745113854250333,0.002156631030741962,0.018728698278202494,-0.012907813088461716,0.008249846043018379,9.768332339682516,0.011125888499546788,-0.001816510151135503,-0.007790459040118536,2.3343253885759836,-0.5548118327011541,-1.0734493767473041
24699,3.000,0.9998056743297609,0.00574726777605941,0.002159499363012527,0.018732833571673647,-0.02249806364245376,0.007160025095243653,9.728077993309784,0.010858420209045901,0.001348498010985695,-0.007417714825062334,2.340928891588473,-0.5636167244385191,-1.0750266093621998
24700,3.008,0.9998056925030467,0.0057463915007744774,0.0021575487721055436,0.018732357206700384,0.030964611686413186,0.04517705650893306,9.734787961574497,0.010067908579011194,0.00016317450793911376,-0.00861644650830064,2.3329171153009813,-0.5631864129276473,-1.0811932172179757
24701,3.017,0.9998058284699375,0.005749461811004353,0.0021605167708049966,0.01872381408018608,-0.0066007897840943035,0.03286651049263627,9.723062604928746,0.011040387738999694,0.00151018732754713,-0.010603316314290952,2.3287075877012993,-0.5682366439719191,-1.073118819863781
24702,3.025,0.9998058007276609,0.005740053808692928,0.0021610583926742733,0.01872811897168655,0.002910693294434108,0.03563510518320214,9.763313183814521,0.008037877350635924,0.0007952252332586546,-0.007455903061837044,2.3294351953401162,-0.5601734127360465,-1.0724575854672618
24703,3.033,0.9998055234598139,0.005737152463621056,0.0021711079447934694,0.01874264205358796,0.02421498601462792,0.025522121446167192,9.78004804987623,0.009620285053065586,0.0031647156409841865,-0.005059065797976333,2.333291117801461,-0.5637704555979938,-1.0655588159927631
24704,3.042,0.999805495504696,0.0057277485265221865,0.002171645289284122,0.01874694674245878,0.026308156266312086,0.011407649928681108,9.716278539204856,0.00803882057274536,0.0007942596177959344,-0.007456011557196773,2.3314042618443565,-0.5611707924054021,-1.074631144462521
24705,3.050,0.9998055131220237,0.0057270042514317235,0.0021696672857272137,0.01874646358598117,0.047736930998997396,0.0013161547320715544,9.733017276337128,0.01007104042484413,0.00016029709158541398,-0.008616828990628357,2.3355062046794957,-0.5633053754478987,-1.067988620482881
24706,3.058,0.9998054086136318,0.005729319650882007,0.002172718950455378,0.018750975858060404,0.002479635617608578,0.038660758529543995,9.763301792190102,0.01086253342369978,0.00134484874700937,-0.007418621431548009,2.335554812680749,-0.5572647184621159,-1.0746378903276237
24707,3.067,0.999805065888456,0.005730786815327649,0.00217514432524907,0.018768512285790472,0.06359233886506184,0.027053691383666693,9.727993518904121,0.010681799153402342,0.0011826597618279,-0.00423332177590834,2.333772061190493,-0.5664466097968769,-1.0645532579021102
24708,3.075,0.9998049149502101,0.005724566454449245,0.002180690197975218,0.01877780526505701,0.06761585556488597,0.06469447582787764,9.746476215206355,0.008831558622031369,0.001977394085816204,-0.006258191673994247,2.3326335673403857,-0.5653325855165516,-1.0758034331113953
24709,3.083,0.9998048936734649,0.005744270691190563,0.002178755892154874,0.018773144744032893,0.10501480884125113,0.07885853972583375,9.758186403864476,0.01492887487222776,7.522632731388761e-05,-0.009740285273050247,2.333353443506099,-0.5658046193944914,-1.074084581663425
24710,3.092,0.9998049579694125,0.005751963825317314,0.002174278354803195,0.018767883353481167,0.06753909548907111,0.06676731499657647,9.746462769896288,0.01210680786025032,-0.00047727633709576927,-0.009777993113655011,2.32556689923601,-0.5548512371589406,-1.0776637181833144
24711,3.100,0.9998051796784311,0.005743234694071162,0.0021745518089803656,0.018758711785714324,0.039632893234360464,0.05642839993759881,9.774996193798406,0.00822425018132994,0.0009507422095467124,-0.010642415586648732,2.329653819671674,-0.5677089802712219,-1.0689662241318563
24712,3.108,0.9998053484287929,0.005726121195177508,0.0021782052714224135,0.018754525081555812,0.05139481054848821,0.0441768724387368,9.751488004294373,0.006192174453969184,0.0015842814328210339,-0.00948190981086601,2.336531382976184,-0.5567764592192052,-1.0746353872711492
24713,3.117,0.9998055355716771,0.005730713507920556,0.0021685296970402534,0.01874426423937434,0.03538564396768129,0.020878787609098077,9.756520658861929,0.011318657182770052,-0.0016647424328392535,-0.010976321392174027,2.3269988523179146,-0.5653070885144544,-1.0731591268465266
24714,3.125,0.999805553715868,0.005729875659980473,0.0021665429742801427,0.018743782312248748,-0.01390771080158717,0.0213801112060864,9.76831105270648,0.010076978579137747,0.0001545594465329136,-0.008617904101206206,2.3358304766712945,-0.5658509775801226,-1.07894919675661
24715,3.133,0.9998054415320735,0.0057323572793135675,0.002168803292399112,0.018748745428884578,-0.006229236910642698,-0.027473971549257164,9.72634521708547,0.010868020329106626,0.0013398744588467052,-0.007420130582928727,2.3326391583799264,-0.5619217245440208,-1.0765682522699536
24716,3.142,0.9998053878598575,0.0057289142604172,0.002147986335760746,0.018755055385103057,0.007627414769398916,0.012260766035852888,9.785057883249925,0.009375801018056495,-0.004358197588899532,-0.007000935218096429,2.3362512347892515,-0.5613685638412265,-1.069710670888187
24717,3.150,0.9998055281586844,0.005732071113018358,0.0021514150228301695,0.018746216618007048,-0.017861507362398457,-0.012979031153116426,9.749849998226384,0.011051411056681256,0.0014980040477371487,-0.010606357038160734,2.335843307804891,-0.5609846105159856,-1.0807044153934882
24718,3.158,0.9998055001902759,0.0057226972539482415,0.0021519204145061884,0.018750513698076864,-0.011555699419800324,0.009752542556662197,9.704553190490843,0.008045925954668715,0.000786661072466482,-0.007457885783667596,2.3335871071812377,-0.5623728972384267,-1.0726505082471869
24719,3.167,0.9998053216010054,0.0057366713787765705,0.002156828098318176,0.018755201741304493,-0.004337352822295069,0.027610079654491554,9.808552186613799,0.01369413352408671,0.0018893081729661255,-0.007383817837690289,2.33086858867095,-0.549878246267852,-1.0681500111551676
24720,3.175,0.9998054622884355,0.005732677115101531,0.0021498027523548374,0.0187497290494714,-0.018095255538206772,-0.010390054667284853,9.749852668878539,0.009290637755513264,-0.0010357245920350588,-0.009816353183041998,2.3389293512063305,-0.5645329772830202,-1.0686844149126955
24721,3.183,0.999805615512647,0.005728563136523144,0.0021431710891345133,0.018743574137588356,-0.008408632229478252,-0.0075635515936630735,9.790104373850406,0.009291303355281028,-0.0010363692596479831,-0.009816494020277745,2.3350372960511234,-0.5672369463932819,-1.0706404583849933
24722,3.192,0.9998055853983675,0.00572636267868238,0.0021543375636934666,0.018744572717518112,-0.045974592792624815,-0.020029327415829662,9.778402922718948,0.009810995633673228,0.003315662991231678,-0.008249193908934442,2.3331412628956594,-0.5682876379761134,-1.0784574036517312
24723,3.200,0.9998055128658362,0.00573757952908021,0.0021544496193976084,0.018744998561413387,-0.006384075932222827,-0.02079484444338928,9.726361691211379,0.012906986668817524,0.000700469096487082,-0.008582138296549576,2.338664242362978,-0.5581577922138012,-1.0658169864489004
24724,3.208,0.9998055309837345,0.005736769340718161,0.00215243589191698,0.01874451150592444,0.0031829653338809696,-0.01777752577678166,9.766614112169043,0.010083506797248268,0.00014811517241863822,-0.008619201510217552,2.326950905136759,-0.561826690263477,-1.0666002530484078
24725,3.217,0.9998054315984158,0.005739225743612202,0.0021559983934278503,0.01874865075404698,-0.014252876012462641,0.030721973995827965,9.768285641916444,0.010874058049374599,0.0013342843064100122,-0.007421921825673502,2.3308640366981437,-0.5640331284937018,-1.0675273298117942
24726,3.225,0.9998054013912406,0.005737035290804469,0.0021671539028459545,0.018749645834886204,0.0390120392745266,0.0688449036433756,9.774919129122448,0.009813332387287925,0.003312986742363008,-0.008250122640054626,2.335520667923504,-0.5606384928861419,-1.0699671015921708
24727,3.233,0.9998053110393719,0.005768385584018971,0.002167914849391328,0.018744756344786825,0.0507322159686388,0.05711103633256296,9.751424308499834,0.017769648294793345,0.0006136723300791302,-0.009706368670508704,2.339187677446464,-0.5657721686645497,-1.0706240257766027
24728,3.242,0.9998052834149531,0.005759035678658525,0.0021683954650308463,0.018749048634665377,0.033284603321641335,0.10580707220898626,9.753072958939594,0.008051546935390539,0.0007806435994934258,-0.007459095902142254,2.3411604148300484,-0.565309406423736,-1.0732997380530696
24729,3.250,0.9998053386527402,0.005767029497307205,0.0021641008165700017,0.018744141482408307,0.0410581910976874,0.05687837655609592,9.711163574001153,0.012122178211259788,-0.0004911087182801382,-0.009780191905190876,2.3380134575610163,-0.5651000454415039,-1.0769871033200706
24730,3.258,0.9998051883655745,0.005760854572426205,0.00216960237482334,0.018753418285982554,0.05059153418837298,0.05984230532212692,9.75140865405222,0.008842239739725482,0.001966783952276054,-0.006262233985604688,2.340647619614281,-0.5586854559144987,-1.0699481659273058
24731,3.267,0.9998049646611742,0.005759231517205391,0.0021669562240072,0.01876614483378915,0.046419409840131085,0.023715037205887635,9.732994846484676,0.009904421362235016,-1.2638555865937755e-05,-0.0054337791254204,2.34190716177074,-0.5643514312121669,-1.0752566401675343
24732,3.275,0.9998050261041428,0.005774164998334701,0.002173079284540708,0.018757572387967585,0.03444552147121027,0.03755004429756514,9.756474105497078,0.013887712492450084,0.0020370073437275147,-0.010572552753155062,2.325800783184515,-0.5482458299239557,-1.0762597767826176
24733,3.283,0.9998049405465665,0.005769007443165731,0.0021648084312300133,0.018764674690858282,0.06778685758223989,0.014876460555271302,9.749760048786905,0.009116072695460163,-0.001201083885478027,-0.006630931726611081,2.327720580867405,-0.5648049218158544,-1.0716936698865098
24735,3.300,0.9998044881423593,0.005772960797218161,0.002170161978645018,0.01878693192130083,0.021568396453036497,0.026658340872297667,9.738881461497119,0.010787999813169566,0.0012508187711769362,-0.005830307504684978,2.3255275362095364,-0.5562650208834786,-1.0722791029309884
24736,3.308,0.9998045584094952,0.005773602197026879,0.0021544321542976597,0.018784805651330217,0.04626417212380681,0.028166716388102787,9.73298372129597,0.010364190834515558,-0.0030266210775628686,-0.00898829830041354,2.342105133298748,-0.5608733508704709,-1.0689401047801783
24737,3.317,0.9998045475445025,0.0057859472394755015,0.0021417241598592107,0.018783038665194405,0.040965304295024436,0.0638861600564612,9.71112039396185,0.013190484783811168,-0.0024760069580864502,-0.0089521125503869,2.3409415193928087,-0.5616799128318469,-1.0767540138308858
24738,3.325,0.9998045979371644,0.005772033383385488,0.002150568125591386,0.018783626674953285,0.03542709684760073,0.09946434151021402,9.689252646201902,0.006994161811754225,0.002753481585086875,-0.008289686245010315,2.3404034177360544,-0.5596619744003202,-1.0699406792257016
24739,3.333,0.9998050586983174,0.0057571971185134884,0.0021415748135830276,0.018764672656640606,0.029840172881661128,0.13477561891370488,9.66738277067493,0.006663091357619753,-0.0014473292349560152,-0.013040291036489526,2.331869160711284,-0.5635819557992956,-1.071430796332214
24740,3.342,0.9998052005559424,0.005753335800213513,0.002134687955243856,0.018759082488122317,0.00675687504020906,0.03287693596389816,9.785010972067534,0.009304754529823982,-0.001050454735848661,-0.00981785417414338,2.3362278654525657,-0.56377972723512,-1.0665138921334667
24741,3.350,0.999805492245418,0.005733114113592375,0.0021332280556856475,0.018749891106896958,-0.017848704045742375,0.00260070360586856,9.899163096812018,0.00541704013019527,0.00037583989773261025,-0.010683497779097063,2.333129397576051,-0.5592386166172929,-1.0768343023137652
24742,3.358,0.9998056488030228,0.0057580874518745415,0.00212363717181335,0.018734973061806093,-0.04187105908433664,-0.09436641781420298,9.867506840477382,0.016205589559475982,-0.0017734274848089943,-0.012102883302364567,2.332086508758638,-0.5637913167815278,-1.067764847318733
24743,3.367,0.9998053744170766,0.00576227035682642,0.0021448087122170516,0.01874591482569558,-0.05161932869570468,-0.09540093828196605,9.827269435211342,0.011400307064469987,0.005679044580835041,-0.005861752130890319,2.3364970857219944,-0.5623474002363296,-1.0699437379095522
24744,3.375,0.9998050693418533,0.005772626549574583,0.0021449806278988886,0.018758975429301206,-0.00020770700117184095,-0.10902261452357669,9.751774198405213,0.012737638641034246,0.000533599119316615,-0.0053991048695026175,2.3310916348988,-0.5708478967109185,-1.0652635375112163
24745,3.383,0.9998045990893875,0.005777379297390889,0.002152367977761295,0.018781715583309728,0.05390883349166637,-0.014072982392666866,9.691129193039375,0.011490077601626672,0.002358434920484615,-0.0030424578615666047,2.3414012847110324,-0.5609104374189758,-1.0728514284204527
24746,3.392,0.9998040869541966,0.0058027673056344,0.0021601489433613896,0.018800248876664052,0.09753586773465002,0.022237795873396218,9.657457899714554,0.016354379254406828,0.002271995659689284,-0.004166966738254176,2.3404046431879433,-0.5677205698176296,-1.0701083133617295
24747,3.400,0.9998039821818169,0.005805189857705683,0.0021631014316065337,0.018804732816338387,0.11508144276117986,0.09936901360987592,9.734415909831663,0.010887871081211687,0.001320829452822693,-0.007425601403431393,2.3296685879095738,-0.560647764523268,-1.0709864264934341
24748,3.408,0.9998040413757159,0.005813202221293192,0.0021586275401667965,0.018799623822383916,0.1150412300613046,0.10031116121917813,9.73440672288413,0.012137239367848726,-0.000505891899062879,-0.00978226823389989,2.3338041841229105,-0.5664883321639449,-1.0689474736761164
24749,3.417,0.9998041824593066,0.005809296556123101,0.002151511870992809,0.018794142892663946,0.04424521118463348,0.11143486412644624,9.729396980536151,0.00931141431364928,-0.0010579197094257287,-0.009818294416963365,2.3286653840566305,-0.5591482181553121,-1.067345625850365
24750,3.425,0.9998046398758974,0.005801846837783433,0.002153333237564529,0.01877188887315908,0.043427046646164376,0.055588725816505154,9.796649075476711,0.008434755881006183,0.00107069071875718,-0.013835330171124552,2.3370029966699115,-0.5653001347866097,-1.0723535853513326
24751,3.433,0.999804857859196,0.005786215475666317,0.0021436949484778737,0.018766205892244908,-0.01550108738010627,0.053541093145699235,9.768185317250108,0.006486160124309994,-0.0016104342644479473,-0.009854288048659688,2.344004312066298,-0.5659305356425874,-1.0615534595268186
24752,3.442,0.9998047898566728,0.0057975828937735265,0.0021449709311979095,0.01876617467543285,-0.04100205706162494,0.028084579031210255,9.73305164263812,0.012929040730599747,0.0006808250314841469,-0.008586914321330767,2.328686901009539,-0.5577112553379586,-1.0702890101171318
24753,3.450,0.9998046398174769,0.005791454116876945,0.0021504267102523938,0.01877543404616049,-0.029015360331160055,0.13976599803556355,9.788061814108193,0.008853154404866195,0.001955625894659124,-0.006266459084667123,2.337284336420524,-0.5692548848248088,-1.0774413001756238
24754,3.458,0.9998045350466102,0.0057868035977776625,0.002142303419235192,0.0187833740422943,-0.017141916403260425,0.12760363386236429,9.764595565590541,0.009128602291539238,-0.0012115990409100777,-0.00663196371096791,2.3360254042518465,-0.5548002431547464,-1.0722162684399716
24755,3.467,0.9998045531600424,0.0057860806714703315,0.002140206057941576,0.018782871690485026,0.03224774730199087,0.12885322248771885,9.75279919273566,0.010104006079052923,0.0001275430071527988,-0.008622964678648152,2.336218891583468,-0.5645005265530784,-1.0652863230986391
24756,3.475,0.9998047293477935,0.005769061278726253,0.0021441215918878735,0.01877828129376766,0.016231955780245288,0.10547633419900586,9.757914830909982,0.006213715997540181,0.0015530979134151198,-0.009489337750913726,2.3335191226606393,-0.5647261129002814,-1.0633506520285694
24758,3.492,0.9998052349202289,0.005747596715363185,0.0021542743626503697,0.018756771046057885,0.04300190855254107,-0.0008861833900529608,9.757403049367552,0.007721482884388413,0.001902935235904589,-0.011065168042293568,2.327241201812364,-0.5653047706051728,-1.0729132190601771
24759,3.500,0.9998052902091634,0.005755836806194936,0.0021498149024894763,0.018751808134587367,-0.0009749792825314448,-0.09681602037035195,9.751902977874625,0.0121457604062663,-0.0005124345567028349,-0.009783523068210644,2.3396936561708017,-0.5677483847290083,-1.0730431446077804
24760,3.508,0.9998053082753122,0.005755127985896246,0.002147707377371735,0.018751303938521962,0.04205993863799478,-0.11723785998185932,9.78550382549113,0.0101073454292815,0.00012499807090759818,-0.008623450120123964,2.3328277663244203,-0.5647794248137573,-1.068970837358735
24761,3.517,0.9998051480257266,0.005749317723073205,0.0021532712302297246,0.018760990112032715,0.0005389336132373728,-0.16679554177980913,9.755533241129418,0.008856717691741378,0.0019525340744256745,-0.0062676714187685275,2.323230922024895,-0.5742031278606922,-1.0586968739967024
24762,3.525,0.9998051660883097,0.005748614233160237,0.0021511589118019636,0.018760485411154038,0.020398099424257996,-0.1050284930432008,9.768724944502289,0.010108578713044715,0.00012381933499589122,-0.00862361824938192,2.3330506037466834,-0.5630427025521908,-1.0660558004197163
24763,3.533,0.9998048472079445,0.005759453463692268,0.0021516685779487867,0.01877409165923422,0.014795681056871022,-0.06939415848532582,9.746799289819664,0.012749604348669157,0.0005260920885920412,-0.005401373589201012,2.3330650331024807,-0.5608640792333446,-1.0680296458343075
24764,3.542,0.9998047427063648,0.005761919154411659,0.002154587408887713,0.01877856497753916,0.034650977738897075,-0.007432104420797301,9.75997312696721,0.010897919637011736,0.0013123721776186195,-0.007428360536546555,2.332796066994629,-0.5586344619103044,-1.064634567768462
24765,3.550,0.9998046443846488,0.0057644277206635175,0.0021579622335352894,0.018782641958417466,0.044881765567109363,0.052203173412364266,9.73289095359488,0.010898559498987584,0.0013117555301268731,-0.007428495295537563,2.3384108971746027,-0.5622964062321353,-1.0645587522389757
24766,3.558,0.9998048598871224,0.005756002625216422,0.0021589407633117656,0.018773639888189586,0.015351072195136038,0.11349262382110652,9.757826313534672,0.00825883450674437,0.0009076161231861999,-0.010650974452490029,2.3311563551985763,-0.5640957120443038,-1.0741168687850102
24767,3.567,0.9998046765042379,0.005770360707615431,0.0021645634664900965,0.018778350368451498,0.05265880509331644,0.12779499168761538,9.769475197148177,0.013727913477138993,0.0018621280484738656,-0.007393562897810145,2.334478321317452,-0.557379045163804,-1.060971817712317
24768,3.575,0.9998049397506663,0.005763349810222859,0.0021523578638148644,0.018767887594461772,0.001662435292230209,0.07606444616436905,9.699268221800324,0.008537024545917432,-0.0022611030690648454,-0.011014856553830374,2.3326178786444887,-0.5599408726609989,-1.0736573178660775
24769,3.583,0.999804843707385,0.005765794212763261,0.002155614178463208,0.018771879071146785,0.01127900822296042,0.07912352786071107,9.739506186475957,0.010901057917875831,0.0013095856935939753,-0.007429195039961597,2.3330758085230405,-0.5599014682032125,-1.0695036558150401
24770,3.592,0.9998050133514531,0.005748803791054684,0.0021591007781842464,0.01876765345223152,-0.011086784530853393,0.03399083782985899,9.790045620108945,0.006220822269801979,0.0015436106681282458,-0.009491484646471947,2.33773932401625,-0.5601780485546096,-1.0728851522794005
24771,3.600,0.9998049122223384,0.005758403125571585,0.002172660638271874,0.018768533114688124,-0.015290919960689065,-0.0022049408344546966,9.771758319752735,0.012665815264513547,0.003836584097310027,-0.008226269054423094,2.3340965365115527,-0.5660626564716362,-1.0755416483440312
24772,3.608,0.9998049569388745,0.00575174690718717,0.002191837546279796,0.01876596216936455,0.028092045459324266,0.03386178866706679,9.738016160611393,0.008773279104789046,0.005260737657996409,-0.009093548884710959,2.3313676886037626,-0.5738191745354515,-1.0696281544292374
24773,3.617,0.9998046853865383,0.005763805484270751,0.0021781588764786656,0.018778318598152287,0.01767827961215871,-0.02398611905647203,9.765135198586115,0.013033637403627915,-0.0026451130144911498,-0.005765109344087971,2.333048751362907,-0.5640169031287308,-1.0658024059317628
24774,3.625,0.9998046576200886,0.005754558248042031,0.002178536742564828,0.01878258869829002,0.05517801740969064,-0.009693828755725682,9.77679093068389,0.008075576765133444,0.0007554010937606064,-0.007464703478476845,2.33016188799726,-0.565293181058765,-1.071671187313878
24775,3.633,0.9998046223036089,0.005752715056947702,0.0021896474487919015,0.01878374121046918,-0.003920435357528653,-0.011776211152026298,9.748326403933003,0.009839736907706184,0.0032825366529296456,-0.008262144898968147,2.3362832730011434,-0.5626309343155713,-1.0740932974254465
