packet_counter,timestamp_s,q_w,q_x,q_y,q_z,acc_x,acc_y,acc_z,gyr_x,gyr_y,gyr_z,mag_x,mag_y,mag_z
26406,0.000,0.0015862951737378966,-0.7477852172717324,0.04209242469781221,-0.6626031846290427,-1.3991476964972211,-0.4715165410038131,3.3127822199597055,0.5621416384013851,-0.7071221711443623,-0.30097306616201236,-0.4212203302637934,-0.10761871534746723,0.7837966234312977
26407,0.008,0.0029307709470409947,-0.7497658244428601,0.039821343840582744,-0.6604974486354244,-1.2875484019280978,-0.37924330880283724,2.7135648143178455,0.5661629757773482,-0.7064429692563958,-0.23007740976175614,-0.4202375863006316,-0.10765184083662191,0.7825813426239827
26408,0.017,0.004673626763522236,-0.7513276025679193,0.038076909140146976,-0.6588134332440042,-1.3633045631455016,-1.2148058141809512,2.8793401517221273,0.5756080869737501,-0.5673105327916416,-0.06942130322549654,-0.4234380556355289,-0.1033572264819006,0.7878216535841284
26409,0.025,0.006650964052003076,-0.7525079622399603,0.03700502627655788,-0.6575090565710201,-1.8758838370497386,-2.0234744997039336,3.6445857706079243,0.5001525473643498,-0.44948746428007413,0.10043031364351987,-0.4146747459597042,-0.0914970398756698,0.792917313154162
26410,0.033,0.008608397352563937,-0.7534301508656668,0.036651766050541004,-0.6564491993345224,-2.3456869716825026,-2.286741269699867,4.480989394451048,0.4025081107618868,-0.3616807088402651,0.22710543817811443,-0.40492458328666303,-0.09483424875076735,0.7959882048223038
26411,0.042,0.010485983670082598,-0.753923668924164,0.036645360395195975,-0.6558553675498169,-3.144204380595644,-1.96244746353842,4.332474488722771,0.32239439229288475,-0.21559531085930786,0.28898470081848754,-0.41252927505267784,-0.09830288168052961,0.8031265424230475
26412,0.050,0.012123803289609355,-0.7540410577379206,0.036742486000123864,-0.6556867288284886,-3.8896708380173455,-1.3854318673758121,3.213795133886028,0.2835995957301107,-0.071053515974289,0.27179054566904004,-0.41297267838780083,-0.08755247780403412,0.7942842732531029
26413,0.058,0.013977809653505447,-0.753840115980066,0.036133376876010495,-0.6559146891570486,-3.9352004309654083,-1.5562222303481092,3.1923016527900283,0.4213588538809853,0.04327379722454002,0.1862932598902807,-0.4095335648758391,-0.09572540325208174,0.7901273920524788
26414,0.067,0.016439558088943755,-0.7542161431132515,0.035192449011698164,-0.6554763473457841,-1.1237251624510756,-2.411613265250039,8.472167954452374,0.5924533994865412,-0.1692190851209236,0.2082700205680032,-0.41297826710657337,-0.08312643939464812,0.7953852608967545
26415,0.075,0.01854959449254577,-0.7534975405229718,0.03636266909910977,-0.6561822347991324,5.567200454101251,-0.5350890967875026,5.673781552326574,0.1956835471361307,0.2053720268809042,0.556088298985279,-0.4117632356852136,-0.07918850242084335,0.7965056948915618
26416,0.083,0.019220612256054325,-0.7493013021439642,0.041926426504589,-0.660621148185871,7.845534250978196,0.19777507238768852,10.880232980666355,-0.6887795818143335,1.4507220133479881,1.1722899537706335,-0.42688579623744083,-0.07682087131907737,0.7936780870117212
26417,0.092,0.021131565345969924,-0.745088253177969,0.04875408240640185,-0.6648458403050606,13.111295672001896,7.786807288563239,2.9383921756460025,-0.6829884017671277,1.3886036597442142,1.5994353002728439,-0.43272721983052187,-0.08204531286014465,0.7901267563032117
26419,0.108,0.03167783929148084,-0.7350118343928642,0.05870593041038319,-0.6747649453957366,22.25880328284133,4.546489147576555,7.2083566435495126,0.24445635518627018,1.6054495110136786,1.8084189880835373,-0.46071212066909345,-0.07007573329665007,0.772074939861107
26420,0.117,0.03646222173388494,-0.730263573704745,0.06295322266556455,-0.6792808778864775,41.910629154897066,-2.6433314911112236,3.723474605379634,0.24169788258921465,1.4730477353216023,1.603705675973158,-0.471901524942258,-0.06101380915119616,0.7639566608289404
26421,0.125,0.03758982395035808,-0.7288331319056103,0.06550304116319039,-0.6805134991830906,67.97738383148237,-13.240541099638657,-1.7509398891920895,-0.18073824967398852,0.4364018807933139,0.6548425998376833,-0.46455258527306964,-0.05186575873394007,0.759105184412487
26422,0.133,0.036128578458236416,-0.7307916102523108,0.0647896795469435,-0.6785577688212164,56.12834460482972,-19.370158410882272,-11.921524051398642,-0.20339667705014014,-0.6456461333954993,-0.3881909470602379,-0.46877508147664454,-0.06271446117594558,0.7732995791757616
26423,0.142,0.03562790656075694,-0.7342135222410778,0.062062772683012246,-0.6751365552829633,29.31360856178552,-10.928944892326859,-8.703622352438384,0.2733672480981595,-1.1573919319124404,-0.6160983253900052,-0.45655588118961443,-0.054232311933752005,0.7709332388380818
26424,0.150,0.03594859106785448,-0.7375159413067891,0.057401896020207746,-0.671924815326747,25.557373695378665,-10.361520991324818,-9.45960907307091,0.7172646657679834,-1.133191720089175,-0.8220086492689641,-0.45265885761436947,-0.05784669701579488,0.7727607752846809
26426,0.167,0.039784077774187465,-0.7417050379547566,0.04694181996741039,-0.6678976937872585,22.063765870450226,-9.008545147591871,-8.175490359792622,1.136796081251784,-0.7487702901788263,-0.6540287853735047,-0.43857016300940144,-0.05331357913915983,0.7868747867283985
26428,0.183,0.04510653289785281,-0.7424519795239222,0.036928362895977916,-0.6673580409381216,18.72420840223677,-1.723883950156936,-3.600479056677896,1.2569821148042768,-0.1789015741289388,-0.4756481345750839,-0.4329703938068274,-0.03906588613767024,0.789935705136292
26429,0.192,0.04639491481029588,-0.7423882672698376,0.03225729706657943,-0.6675826834825725,16.264604654745874,4.596894885461856,0.18211265759606568,0.9625609804997454,-0.002297014742634984,-0.6301692342845822,-0.43906950904730047,-0.03469284851093173,0.7890533305597187
26431,0.208,0.04528657080901008,-0.7440703125742777,0.022242120726774384,-0.6661935038076798,12.910796160970127,7.403707527949167,2.7428515276228103,0.6867894366167602,-0.28369048189531665,-0.9910767818026933,-0.4278845164709738,-0.030786959124327617,0.7980407217987731
26432,0.217,0.04342828126699777,-0.7472033240619206,0.016317383688216634,-0.6629742980588184,8.404085357336248,6.637428259986822,2.1299893003313266,0.5356039072499887,-1.1067144188855196,-1.3625453544711614,-0.42348401593792273,-0.032040338202435445,0.796875915767206
26433,0.225,0.04091103468112145,-0.7512782162748874,0.01056743204710766,-0.6586316560658726,5.116517857268732,4.350514768736754,-0.7418955285504325,0.3998102525069926,-1.4390770314886938,-1.443717412976648,-0.41500141362519705,-0.03366148905321362,0.809174668833152
26434,0.233,0.038108192625762594,-0.755093579378337,0.005723981460307615,-0.6544835277320976,2.0362920184658497,2.445568959613498,-3.6269480542972947,0.19295116647537608,-1.3655820527454028,-1.3172827630876933,-0.40249683618757104,-0.04078641345591246,0.7986852784689749
26435,0.242,0.03578040988474338,-0.7580311189280149,0.002700596601277021,-0.6512305980090457,-0.5618800046180544,0.9681389667186754,-4.35828341580466,0.02013777538303438,-1.051397887899564,-0.9165288934523411,-0.40374527634769974,-0.035264920414407076,0.8041464260622964
26436,0.250,0.03460084025002559,-0.7603138578327104,0.0016479057146862536,-0.6486315624823459,-2.3838330979868245,-0.034176376640849784,-4.118683048949243,-0.08554426704885643,-0.8369557220206035,-0.3703499755384404,-0.3906135179663219,-0.04133861006589499,0.8143915472295231
26437,0.258,0.03489988050665558,-0.7620374375517687,0.002534089522162289,-0.6465868236365861,-3.414319768530468,-0.7214818208947203,-2.6216244535820024,-0.09444166749058135,-0.6405686337960663,0.2080203258922641,-0.3855306899445721,-0.03719529505933119,0.8230972842514559
26438,0.267,0.03645768249192738,-0.7633068014861838,0.0048844397516687975,-0.6449881444186109,-4.928656293708014,-1.1758580992036236,-0.5413190392919223,-0.10034000351403818,-0.4972620447056188,0.6786134377173506,-0.3801411168872278,-0.037538722244585876,0.8194704594943849
26439,0.275,0.03859305108987368,-0.7642525317977895,0.0078630928750791,-0.643713302502505,-5.890734724504549,-1.2381180170316057,0.33519645294740585,-0.07224587192462693,-0.3808184615999096,0.8769215400984616,-0.3789472515756779,-0.04325681241711128,0.8247606551668248
26440,0.283,0.04077053660078798,-0.7646451181447433,0.010472216531011597,-0.6430753760824806,-5.332672996918181,-1.1979278055727116,0.8577701016718385,-0.016947829499811773,-0.1875855058385422,0.8223699083272158,-0.3733208393750421,-0.04258428614421784,0.8225728550670052
26441,0.292,0.0424851018908097,-0.764613563698661,0.01263157725150474,-0.6429631074809044,-4.083378133257666,-0.8510431220346988,1.9089377786232735,-0.012310797029070607,-0.017390334485971413,0.6622059593046989,-0.3782265491698128,-0.029273045426905137,0.8270712705614429
26442,0.300,0.04354821317358749,-0.7645367482567275,0.014432148177210447,-0.6429454306497626,-1.8655063936512903,-0.4172467291070601,2.327312080377693,-0.09229515751163322,0.0026570344721940035,0.5022935801401147,-0.3825911633463594,-0.03749234655976932,0.8211663998575721
26444,0.317,0.04372004377794434,-0.7649453771247997,0.017869073063719102,-0.642361132086381,1.3704441229562019,0.21956808965435148,2.7935847382700754,-0.24794581264059254,-0.07696851264166903,0.330505155813085,-0.3801744638390636,-0.03662769244977868,0.8260398689456229
26445,0.325,0.04313258857382654,-0.7657093637684158,0.019517356515003505,-0.6414419871157134,2.8142861308053155,0.8053872675640776,3.638195396040684,-0.3935457051387423,-0.284564835757669,0.2226087819893039,-0.37404256787165985,-0.03702412041768086,0.8204643813950333
26446,0.333,0.041991523902785634,-0.7670505491872661,0.021250555726928067,-0.6398582505470506,2.536196474896878,1.0361796146604139,3.1602582335501817,-0.4941078939872966,-0.4787809018902451,0.1428176157274851,-0.3672550038280085,-0.04555819254056791,0.8300113890698585
26447,0.342,0.04054069650900705,-0.768450159848026,0.022802710460080432,-0.6382169224893542,1.5877521584399608,0.8532236587370845,3.2295396471159417,-0.5403074961495726,-0.5046447752804948,0.06828901187899611,-0.36994429431830783,-0.03698991702657213,0.8307420720100782
26448,0.350,0.03864488209175737,-0.7699837271340307,0.024375715878835455,-0.6364255317885164,0.4466712584061379,0.24034522386748539,3.6059329177338575,-0.6123304113789533,-0.5402353610941273,-0.002508115935574879,-0.36190222511551834,-0.04301830889519754,0.8336331163851575
26449,0.358,0.03662800092727462,-0.7715769070792344,0.025794352573427874,-0.6345566305582445,-0.4616379559024685,-0.32813221828319994,3.4296521575707306,-0.6279676267284764,-0.5719535564405965,-0.0432311779693206,-0.3597035526855735,-0.050597131342368915,0.833361550011852
26450,0.367,0.03481345595004046,-0.7731064598092514,0.027141352766579845,-0.632738312461022,-1.0253192470581807,-1.0067278300559197,3.3490063175296028,-0.5630286852816084,-0.5464128141801603,-0.03208772164426635,-0.3643586783371039,-0.062476115340138486,0.8365912004676261
26451,0.375,0.03337269397571605,-0.7744307393877572,0.0282385544565012,-0.6311464784266347,-1.5257583643358301,-1.5723159899142243,3.1752313860738934,-0.4681255732000412,-0.48739024319393587,-0.014458165398505219,-0.3561034418763032,-0.06833887976299047,0.8455846734493105
26453,0.392,0.03194462826467308,-0.7767414913050151,0.030337705169477393,-0.6282768657648818,-2.450166776022324,-1.6777740625800084,2.0592974316740618,-0.30728723671800734,-0.43129595489839945,0.0807551404521816,-0.35021253865837015,-0.07290404522682614,0.8393884291246602
26454,0.400,0.03204503315102898,-0.7763961876227318,0.031527440779835464,-0.6286398779691846,1.0294388920004671,-1.9782682633900297,3.4763069872310455,-0.17504133091472282,0.10647399190992135,0.25020467873166125,-0.3551010787464457,-0.06994231112418392,0.8405043815383954
26455,0.408,0.032544284341440875,-0.7702647508550772,0.03295211364225974,-0.6360402828071324,4.741022440498153,-5.630183432518948,5.933727236082972,-0.014164424374551017,2.300917916625141,0.39322090469848864,-0.3638365519878846,-0.059726384368086256,0.8299248943596828
26456,0.417,0.03723694881661265,-0.764773923176375,0.029558150986060933,-0.642542272370099,3.5390720949159475,-9.696817783344422,10.431378474396848,1.4668419955345022,1.9628904973013666,0.13300063213039148,-0.38557137980494643,-0.05358536583633489,0.8311132598833193
26457,0.425,0.04246990651853471,-0.7648446123092225,0.02369753470399563,-0.6423764106120461,3.9815729201172516,-8.011081546616653,8.664269017207404,1.8640064786330541,-0.12378199249923585,-0.2803787171864857,-0.37212706947962343,-0.03999802681403093,0.8278818478888148
26458,0.433,0.045562230810770904,-0.764129051258104,0.017879972853905492,-0.6432038422752777,16.905000098897492,-9.658267133150789,-8.025319292049817,1.459252358820258,0.18912966367810477,-0.5935823332214643,-0.3767557320224285,-0.03077047522280359,0.8258982183594807
26460,0.450,0.05114707608595003,-0.7546677877914088,0.006761240175226572,-0.6540755249274909,24.772144789370973,-8.918418639765148,-0.23906088444284676,1.4451617298724169,1.6705857709429157,-0.5895933073433773,-0.40919939104003505,-0.01748018770093776,0.8204880689231893
26461,0.458,0.05085323638160945,-0.7515922848478641,0.002082702717318209,-0.6576614995999652,40.28743016412746,-2.1265470160548485,-2.089442035569563,0.6960124229327846,1.0814981855885608,-0.9034528483031483,-0.40847039236473814,-0.015263855947329288,0.8211643043275609
26462,0.467,0.04943104507892086,-0.7505419263110147,-0.00045235700363394684,-0.658971307421574,48.36673492058491,6.895367963915114,0.5054894863205133,0.15645113054488322,0.390120725345316,-0.6874017281584097,-0.4065063504939343,-0.0258242877906357,0.8190186182495266
26463,0.475,0.04988531472777398,-0.7514961052417195,0.0005512983011130119,-0.6578485807928909,44.83627394368701,14.767635040974152,6.9631279996959385,-0.10126797562621723,-0.3619733760762508,0.26024083759534994,-0.4069715870513666,-0.02057442376019873,0.814477533118727
26464,0.483,0.05115030552824741,-0.7543549501297182,0.0035459265678273945,-0.6544613677398639,28.721772943071958,9.722289228893155,2.397671836324891,-0.2724392869711319,-1.0479344518201323,0.7535287161548331,-0.39599139273375983,-0.019076993964300275,0.8157137878479045
26465,0.492,0.052175332106120166,-0.7565483268979579,0.006909257031770818,-0.6518164050979278,18.932851765334327,2.2254493368606365,-1.8402804905045258,-0.3812896904527112,-0.8195718676562153,0.7865015791387854,-0.3925894043871703,-0.01777061410354495,0.8188706309563729
26466,0.500,0.05273526603782903,-0.75771111951477,0.0108562059506236,-0.6503652772649781,17.150770727234377,-0.6533978758647214,-2.4051508555458527,-0.5256483356301792,-0.4195929245191446,0.8123716283386816,-0.3876969797265007,-0.019531969910726848,0.816989410759279
26467,0.508,0.05276022079996849,-0.7575279985730945,0.014624181979066663,-0.6505027469430266,17.707362922326343,-1.5995590355971914,-2.8580238602779695,-0.5908639592061228,0.06745719640929145,0.6992473147473779,-0.3882125757393997,-0.019874319194027486,0.8223692288741596
26468,0.517,0.05201394561633889,-0.7566648763128301,0.017875483655044763,-0.6514854422778831,18.70170040018698,-1.952456178691603,-3.540392762207301,-0.6236017394956065,0.34385093288527646,0.4781516286166033,-0.39088871561239036,-0.023832131461325054,0.8205092165669515
26469,0.525,0.050959163314636284,-0.7553853347346466,0.020553162064476722,-0.652972991226475,17.871309694640836,-2.4213518333834587,-4.63026080822024,-0.5998796455796666,0.48480524609705083,0.3306303525060028,-0.3943105249008643,-0.025032509756785382,0.821257134636957
26470,0.533,0.04985237522311533,-0.7540683262820004,0.02296608348653683,-0.6544984789838445,16.467565571975467,-1.9357784740700406,-3.7592732215691753,-0.5509480827945019,0.5103134809433593,0.26886940175611523,-0.3994604840058615,-0.030526424505012965,0.8257763416797268
26471,0.542,0.04882801780150268,-0.7534076519471726,0.024671122805877473,-0.6552740421873293,15.223511375291075,-1.4077799691284174,-2.2989316709467906,-0.4540070690302124,0.2518560079268545,0.15691722620247495,-0.3972428931509185,-0.035764116241742104,0.8217778115768122
26472,0.550,0.047866273500619755,-0.7538471363710695,0.025768005295416455,-0.6547971630584528,13.805887021117412,-1.7480633665876955,-2.53681832708307,-0.3511927522362211,-0.1386617866517606,0.048397652847674,-0.3999275701691911,-0.0386993499530606,0.8215996322352707
26473,0.558,0.04728035697050011,-0.755043652914851,0.026348596812537057,-0.6534366086191923,11.629933595994677,-2.7719730633317576,-3.669135891724733,-0.23300312755761496,-0.43851133374780976,0.01608868476093185,-0.40455412501544,-0.03216960645319204,0.8192007826958961
26476,0.583,0.048771579770994465,-0.7612629651974525,0.025781694985416395,-0.6460923579714462,6.554365772064501,-4.087667580310072,-5.087728005296763,0.08392652484988057,-0.7758295249978298,0.03720292389650202,-0.3809133338846416,-0.029510471046864828,0.8273083112299419
26477,0.592,0.05018787227980769,-0.7637320599444336,0.024465975359462433,-0.6431142465680323,2.3118076303359114,-2.9071704744955458,-3.3532412097755278,0.38449208987410016,-0.9757611349349942,-0.01976065014322045,-0.3794458968718792,-0.028547518371364194,0.8268011516241539
26478,0.600,0.05149607240916685,-0.7661599053957394,0.02268008674608221,-0.6401818238247718,0.74255433650263,-1.4416797464447895,-2.0405129505477952,0.4713632335914654,-0.9386938080206759,-0.13199220283928334,-0.36019951311738724,-0.025400281529455712,0.8348731233589305
26480,0.617,0.05366552751425512,-0.7699031231095027,0.017169903804554805,-0.63566845649772,-1.1101516879930644,0.40550926135072013,-0.3031120659575157,0.580157664412736,-0.7397532111744407,-0.3426676379955043,-0.35584756153456676,-0.0281036368166914,0.8432725477872467
26481,0.625,0.05482672502314173,-0.7709789966649813,0.013642691099817774,-0.6343495045353554,-2.527902730525325,1.9895293964341876,1.1983472213603756,0.7171330243848714,-0.45735471047915316,-0.4728577571457571,-0.3470480573679912,-0.014483172305232743,0.8412378276214646
26482,0.633,0.05621329902768402,-0.7714370217053552,0.0099309531887701,-0.6337399803733061,-2.499853444620454,2.5457610664821217,1.7178817413285823,0.8141666361400425,-0.22347454088636032,-0.4792775896779838,-0.3551440343068601,-0.012806864867898978,0.8489667041506347
26483,0.642,0.05793853393480349,-0.7711704201079805,0.00631067749465202,-0.6339554280748181,-2.3249996249193745,2.3581756871355557,2.7959745949204886,0.8584556442353749,0.026496428510417742,-0.40800981083580046,-0.3519419507704524,-0.0053870447686701056,0.8434083925914986
26484,0.650,0.05987660436061459,-0.7706001282527285,0.003194059339232364,-0.6344919483902526,-2.138717296674446,1.411347384722907,3.437373293388244,0.8430852654165779,0.14718196384487833,-0.2886569565757919,-0.3509493581232815,0.0030752291800306545,0.8402529033318371
26485,0.658,0.0619601332922872,-0.7699191254117947,0.0007248273378237827,-0.6351259377736591,-1.5075082729772928,-0.08214297070734822,4.487728785819145,0.7574117270135529,0.17535166126122861,-0.14082056044950755,-0.34679470468757784,-0.0015882348493150413,0.8394236557833907
26486,0.667,0.06395731865212637,-0.7694082763503653,-0.0009942284325522054,-0.6355465185053056,-1.0686625799418197,-1.0033732330650063,4.9049775864954235,0.6415660941003808,0.12973039684604853,-0.01883907410874111,-0.3509686073687978,0.007330092947766341,0.8440450392981687
26487,0.675,0.06579744174364804,-0.7692259836306734,-0.0023583307198852157,-0.635575739816767,-0.5277387131267766,-1.1199662855938997,4.469205624855092,0.5372436824767463,-0.0011428169616806785,0.03183964815714746,-0.3485319915034862,-0.00021560401025034023,0.8449949500583758
26488,0.683,0.06743170374310942,-0.7693103629691378,-0.003533941425742115,-0.6352968141086457,0.016682665373198968,-1.1792674368757359,4.200650501631421,0.4829644771788072,-0.08341352217482763,0.03228895495468468,-0.3585459389806639,0.013484361675179558,0.8457933773530064
26489,0.692,0.06889219819890767,-0.7696612478661574,-0.004977089611838379,-0.6347051733989792,0.21567958892299172,-1.0635038198877447,4.3010646280912095,0.4706591606906566,-0.19748651908090054,-0.035425603921762305,-0.3536673766219268,0.010087526919603566,0.8466430555534662
26491,0.708,0.07189445488850507,-0.77164826342104,-0.008028276804034059,-0.6319222196498047,2.553460880610886,-1.4302063650189263,5.849275099478992,0.4976885523213165,-0.4313023496813222,-0.04290654554823829,-0.34466066930875533,0.016578597734440533,0.8518857046632767
26492,0.717,0.07355485700326143,-0.7713164468524025,-0.007418264805524532,-0.6321436475782144,8.458618290963013,-1.7659946491866916,10.163343669528851,0.19982308634693946,0.07323415978376888,0.37068404367485275,-0.34856197553550883,0.025100497563619734,0.8509018582617166
26493,0.725,0.07448504938132158,-0.7697832831892588,-0.0035002257250324733,-0.6339348726493137,10.377823827223864,0.9033738743263752,15.022006239703984,-0.3912013361878729,0.6116342671449796,0.8512616628658225,-0.34269644834903457,0.02531142279225567,0.8497047377467128
26494,0.733,0.07452805061003177,-0.7693424797011065,0.0015544334408087396,-0.6344724598722157,14.488307080884656,4.537498955666019,7.791925152915374,-0.7631721190132945,0.2144541279206997,0.9466098123075576,-0.3553836936317511,0.02868838225433885,0.8480832603376247
26495,0.742,0.07579734021267513,-0.7672948080618502,0.005309321649347149,-0.6367772387904872,18.063755076181078,2.9058350647689384,6.714397187296784,-0.29269651006414826,0.7802500755002978,0.8694086649122278,-0.355178295518928,0.02645325310919162,0.8557162245109474
26496,0.750,0.07707265319919177,-0.7652359662193504,0.008342762950655428,-0.6390650361579207,21.771314060436584,0.546165204628972,4.989322325154942,-0.1989365142031741,0.7515306335492518,0.7429196743194535,-0.3643662918800664,0.026220296783154764,0.8380910821162337
26497,0.758,0.07910035243443916,-0.7632306435799113,0.009952535747846871,-0.6411887912132671,25.96223777790472,-2.079271793548722,1.947500756135772,0.17266982279479956,0.7070697041624129,0.5901994994584268,-0.36488503262320043,0.030046684995787627,0.8440904177399358
26498,0.767,0.08111190013105234,-0.7616973271012313,0.009988552630358706,-0.6427583296701189,29.358067493218805,-4.808397510607387,1.6380019897241211,0.38290096331559453,0.49208796717325703,0.3084385776448918,-0.36780704775127354,0.03147123871554578,0.8425715110402602
26499,0.775,0.08276325917359925,-0.7605947153259344,0.009214449552106058,-0.6438641284220429,30.25459569206798,-6.981225359743805,-0.5710912215645048,0.44880917390954966,0.35007272134874695,0.10189362041975092,-0.3755880060713878,0.034722321318841155,0.8363379150365243
26500,0.783,0.08362314868274753,-0.7601354079683227,0.007191927082097775,-0.6443210432246187,31.409664713537175,-7.3135526487668345,-1.7422655983088822,0.463752173619516,0.09902684231947576,-0.2374958432510226,-0.3783097409966364,0.041754494351906875,0.8434602099791173
26501,0.792,0.08402784698103685,-0.7607012099946179,0.0038600302207986693,-0.6436288450738912,30.08694080090553,-5.648463772977131,-2.9895778570884275,0.5767311903262907,-0.26722321857189363,-0.5424499122348394,-0.36976945273429507,0.035917152418424594,0.8443947272829595
26502,0.800,0.08491136999909452,-0.7615518220105105,-9.359414519089182e-06,-0.6425176118595896,24.675587073525477,-4.188753531548281,-3.5252632239824444,0.7233493818481352,-0.41829246611254245,-0.5570454895462118,-0.37512172153735024,0.046074531195997886,0.8406725468924086
26503,0.808,0.08640347397460238,-0.7621468029860795,-0.0037166521458069654,-0.6416018055461234,19.53366744170007,-3.3764415385771094,-3.9934576305355116,0.8330126779585154,-0.3233153920731569,-0.4417231985587724,-0.36439346747383516,0.04492715368318505,0.843444722935543
26504,0.817,0.08880077614619859,-0.7621652893186321,-0.007181856049127473,-0.6412229837251381,16.257677095112573,-2.106260137649986,-4.018526093799418,0.9561468914220491,-0.15489132457103763,-0.2592675027823753,-0.3631662106383251,0.056615087745811477,0.8421567283681315
26505,0.825,0.09199352362825668,-0.7616258994995149,-0.010106002452355755,-0.6413743443079444,15.339391674600424,-1.0488157992428706,-3.5543126501928137,1.0479309394138365,0.0547871206236549,-0.0512624837656373,-0.3644104299338785,0.0657774662606835,0.8467863580533044
26507,0.842,0.09943883400169948,-0.7591769966628039,-0.015218543047867596,-0.6430634509734854,16.031356312334182,0.13220766490955,-2.528599819512662,1.093567539006925,0.2830819701015376,0.09001603889779161,-0.36950570235977626,0.07928530410901621,0.8405321910167413
26508,0.850,0.10308535192459874,-0.7577955985653311,-0.01802779321910911,-0.6440452155596246,17.018574135067713,0.7298330662829505,-2.055803702648279,1.1130795773669322,0.3182481028853844,0.03306237502958365,-0.37316435079154164,0.07706897235540774,0.8398410844294955
26509,0.858,0.10642431447701413,-0.7566294165666636,-0.021141352167633735,-0.6447781281205287,16.9654046726991,0.6337781689732366,-1.9523087015887022,1.116749181477719,0.2525107031241945,-0.07189605654036413,-0.37071198391773896,0.09386209619814456,0.8376880182052592
26510,0.867,0.1094515574255109,-0.7557642837692461,-0.024641940361162226,-0.6451615911778427,16.046159451642904,0.7317615353961113,-1.848047430132987,1.0964950385428989,0.11508637488592857,-0.1756206682757524,-0.3734013752956328,0.10169821955876844,0.8384385761829158
26512,0.883,0.11439957624158124,-0.7556777890100421,-0.03208459073948992,-0.6440763892503134,14.301106106392044,1.0633442156446697,-1.684927436823912,1.0308097057341081,-0.16760906416523996,-0.2875246393631317,-0.36948384725161443,0.12093185057941154,0.8362266954253271
26513,0.892,0.11656725405864382,-0.7563537263642031,-0.03577405759713654,-0.6426984772809475,11.764256651120913,1.4014634866245015,-1.612113267037827,0.9320849719016752,-0.4594861688139009,-0.29428954667765617,-0.37362919554194224,0.1211494009058784,0.8352228126091579
26515,0.908,0.1209283622119677,-0.7584169952649272,-0.04182548602220627,-0.6390857698502265,7.925224946251016,1.459606754570442,-1.6959233322277207,0.8513270830213047,-0.5489824649961801,-0.1725051916983169,-0.36340159905505337,0.12910477602745918,0.8404319079702921
26518,0.933,0.12971593419584124,-0.7601414920444258,-0.0469906525599175,-0.6349413886810087,2.662837532427107,0.993270277253994,-1.174285767058986,0.7902629396029739,-0.37454896022150674,0.1731645492725295,-0.36024028438076205,0.15554837982064926,0.8429051355281871
26519,0.942,0.1334603407242025,-0.7604697441457133,-0.04794691715519754,-0.6336996124569163,0.5924052536550521,0.5667932060826676,0.5206575048692145,0.8139516551400048,-0.30289701793404805,0.4430864101371736,-0.350727392559125,0.1570590598122096,0.8446220498132367
26520,0.950,0.13718093030186712,-0.7609320860847981,-0.04857993187538349,-0.6323003581741318,0.03677457232896218,0.6035575141609685,0.7229925732017497,0.7820789006403743,-0.3170339303767679,0.48836297486996455,-0.34482764406166355,0.1627042739085947,0.8366832695225417
26521,0.958,0.14082461109512798,-0.7610797962411645,-0.04910374247252262,-0.6312802825517413,-0.2458237277874429,0.756022310012237,1.2237116928019593,0.7414357672229446,-0.21456717696084057,0.49477127597387816,-0.34707593063325304,0.17909650048950648,0.846728910978923
26522,0.967,0.14400841299885442,-0.7609633247830516,-0.04923953359305006,-0.6306915756946616,-0.9269961530349748,1.105308061584072,1.7005939325384514,0.6183330468569371,-0.0702798849619521,0.4715106798842306,-0.3443646106169186,0.16845656747222887,0.8416583718127516
26523,0.975,0.1465784477314803,-0.760615256851075,-0.04902153649426491,-0.63053634206582,-1.524871180704433,1.3339298493717506,2.25791615246163,0.43932756189038313,0.032861061731958845,0.4407501339562834,-0.34534135136800403,0.18506526647765345,0.8416910090505328
26524,0.983,0.14862501927676758,-0.7602587167685874,-0.04851712946609263,-0.6305262685810419,-1.7865737102305639,1.250002350847053,3.2118250260048464,0.314867948995417,0.08263716643954656,0.39902536280783457,-0.348271399203387,0.1911731595202501,0.841754560129339
26525,0.992,0.15012313550653664,-0.7601843685582563,-0.04806773345445692,-0.6302953775698524,-1.8325622149277483,0.9924385186615856,3.818586365894153,0.19909385659199938,-0.023789655769768603,0.32655076271611244,-0.3475129717780464,0.19103403246580042,0.8366332788783103
26526,1.000,0.1510580176906602,-0.7606943870046092,-0.04762677227239327,-0.6294896468044286,-1.5279698734742042,0.5609566215284054,3.9203419691188635,0.09900589729944734,-0.20487269288643814,0.2511046917879016,-0.3409100151300509,0.1826700570826097,0.8344515137275159
26527,1.008,0.1516845061056559,-0.7615280426576635,-0.04728025994282263,-0.6283561314041675,-1.113562649105383,0.12317942580858919,3.5061644525914657,0.032522645344404924,-0.33687221656297434,0.211419410172741,-0.34337104272300184,0.18399631223685783,0.8383107571912
26528,1.017,0.15228569830994776,-0.7625335623761748,-0.04691046569159672,-0.6270175759488328,-0.8034084622349668,-0.45101193872561207,3.2114502373347062,0.03672776221044532,-0.3822918850984197,0.2081931019670844,-0.33677755389490976,0.18789449862367694,0.8379941695793487
26529,1.025,0.1532431210497617,-0.7634123409946656,-0.04661037490216091,-0.6257360597084471,-0.8005371030223607,-1.3276737535477312,2.9277292544061586,0.10025387607028768,-0.3702706374912168,0.25739042673089496,-0.32994357675531905,0.19230066173957014,0.8383977139287428
26530,1.033,0.15460647328000354,-0.7643529097522207,-0.0461528255209857,-0.6242846982504563,-1.0786412790634745,-2.085113899813715,2.641277646191275,0.1674339993908606,-0.38500519689219204,0.3415945285540214,-0.33734001739813263,0.1983047090207799,0.8526069675301641
26531,1.042,0.15636692647518835,-0.765452447329556,-0.045741817370077875,-0.6225268037005152,-1.674887844820765,-2.655461419074597,2.163432188329063,0.22848039307894477,-0.4821404547760616,0.41443101591051906,-0.32997725452767307,0.19980768601255525,0.8450322956167032
26532,1.050,0.1583043144071586,-0.7670328958012387,-0.04535379968164952,-0.6201155647565081,-1.65628799617418,-2.660100491821788,1.6785276173147432,0.2704025700138954,-0.656218876934931,0.449858081250463,-0.3168332371029468,0.20172804416767964,0.8528623632092325
26533,1.058,0.16012153844648683,-0.7690054288462421,-0.044876154533319806,-0.6172340513005092,-1.2086432669151672,-1.8378589576694149,0.4391649973330786,0.20837109091249933,-0.8175215939702775,0.47797543602076237,-0.3114853127383333,0.20502658035774562,0.857440405781713
26534,1.067,0.1615008900383067,-0.7710883907131446,-0.04372404493732467,-0.6143519871527782,-0.14758168830766366,-0.5987948121731886,-0.6667095502527738,0.04061716549496653,-0.7964989579788953,0.5288247667260276,-0.3067734091255367,0.2061000038924641,0.843025394900767
26535,1.075,0.1623091814333807,-0.772576297271968,-0.04174641492531293,-0.6124041405451519,1.724530675644367,0.6414857391227132,-0.40340951636255673,-0.19040500801407612,-0.5283159714392224,0.5747768455887026,-0.29607843475546125,0.2063517576100397,0.8523537303701814
26536,1.083,0.16270885894283016,-0.7724810844172764,-0.039198291184743994,-0.6125865615627134,4.926256954757053,1.183869494024944,0.8625753690276702,-0.29294280239463466,0.13627843315149127,0.5288249762310291,-0.3063537339911641,0.21208417588018108,0.8565421622688888
26537,1.092,0.16395759184805156,-0.770343340243638,-0.03779615101600859,-0.6150288588237449,7.3439713630162125,0.9789032499470388,2.750832242529221,0.0733819104754702,0.8063664653162262,0.3614339863578252,-0.30802948938552394,0.20116044155812718,0.8499916558989573
26538,1.100,0.1663284566179919,-0.7676439267585542,-0.039184125179229146,-0.6176748744798698,7.552062820879464,-1.2406616195281794,6.567492314163965,0.728164240685572,0.854777227010391,-0.015484129902023443,-0.31119550200504714,0.21259769980513202,0.8484439319960588
26540,1.117,0.16837165730035086,-0.7612566725459923,-0.046352800144617505,-0.6244923389769411,14.094535266596205,-2.87490427854162,2.607371131923804,0.8058510465384577,0.9764178649235741,-0.6468284403701363,-0.32700322664196185,0.22497033243435974,0.8363045955711619
26541,1.125,0.17030914530168248,-0.7558218156077191,-0.05061385955326388,-0.6302114052436569,17.971368877036397,-5.285089670588141,6.779211345534445,1.1300986040595127,1.710081284928221,-0.7275745907552322,-0.33649639840930873,0.22262149872413253,0.8307027951450752
26542,1.133,0.17121596712960416,-0.7521222419303268,-0.05561754902418018,-0.6339589214090426,21.42868796025399,-6.410671210513194,3.855311381716252,1.025005596885977,1.0713844523447138,-0.9448276884765459,-0.3545872417258296,0.23252265449020734,0.8354710880649394
26543,1.142,0.17159215781195697,-0.7488483899325176,-0.061234345702525804,-0.6372068543097261,26.000649706852734,-7.172998426255226,1.39740225314508,0.9930171504378578,0.8685395788302486,-1.1043146285426273,-0.3591303646698243,0.23274467411059707,0.8166360038165454
26544,1.150,0.17118008729531614,-0.7463648283605849,-0.06703274950599661,-0.6396432843339397,27.054599600230237,-6.556275429928787,-0.1141054382315657,0.8757770152412719,0.6059526254561156,-1.2301594793329256,-0.36914699701138953,0.23595708402886087,0.8179633542214264
26545,1.158,0.1708695212936798,-0.7446380322297201,-0.07267044761328485,-0.6411215280222654,26.261025732164157,-3.958860401550482,1.3370901873103864,0.8362773743722178,0.303006688023875,-1.1313419630388786,-0.3688715475465447,0.24726846541707792,0.8117960761324433
26546,1.167,0.17174275449559925,-0.7433883001528531,-0.07742719345092974,-0.6417813421940753,23.480859733538857,-1.9563914938668074,2.175549296959841,0.9267526891160718,0.15069095075891428,-0.7652083902628504,-0.3735150531094912,0.23874656558789872,0.8127365482506205
26547,1.175,0.17416593217122464,-0.7421803822046801,-0.08145405518089262,-0.6420278383653099,22.203589344902667,-1.565163020173489,2.7593374552149643,1.0811322562757502,0.09738563809616063,-0.369226060003302,-0.37374294608566005,0.24867314384334324,0.8095351125898875
26548,1.183,0.1774058072168976,-0.7410051253340209,-0.08483423498445071,-0.6420605394891018,21.48760309912872,-2.11382310357117,1.7173138417022151,1.1486930264724147,0.11201961883427773,-0.12976476354972452,-0.37297403649300886,0.25262987820868676,0.8023488255374794
26549,1.192,0.18114624285400632,-0.7393918934932614,-0.0879679382004981,-0.6424541294015323,20.24690108688812,-2.2523815905522575,0.5499948940073474,1.193888066058328,0.2397030227297061,-0.017954827896569246,-0.37003748100757755,0.2667583194492195,0.8010032557019547
26550,1.200,0.18489563262466097,-0.7375944208263938,-0.09087378038215475,-0.6430474566011125,18.4219676320193,-2.1309690634736516,-0.18157085609154883,1.1819204170896669,0.3348282594230638,0.0020899362060597866,-0.3797994600729283,0.2743106415050671,0.8002602145582168
26551,1.208,0.18853021363055822,-0.7355702000674725,-0.09367785888735959,-0.6439078335254157,17.14740260215077,-1.3674949096758346,-0.57556140035347,1.132328284507523,0.39752112865695927,-0.00022947151255870498,-0.3763542088320977,0.28368949244445196,0.794894189738143
26552,1.217,0.19213588163051765,-0.7334042730237563,-0.09613576403543499,-0.6449495252916172,16.47239182270128,-0.42389006660328693,-0.3023279303930962,1.0940097359708891,0.48718098115315095,0.03543771576125528,-0.3805079261217169,0.28614987491585103,0.7955390148252455
26556,1.250,0.20702230513630962,-0.7250262895126377,-0.10345917926432077,-0.6486715986672605,15.490080400208607,0.7653483325406344,0.08683907427373468,1.0129081897303005,0.4790865795938974,0.17399278780930272,-0.3955487761326771,0.31470165309344644,0.7766142834449556
26559,1.275,0.221033628395433,-0.7208575765505846,-0.1095161714005829,-0.6476995427277421,13.09968179910609,-1.5293523373883882,-0.6774246649448511,1.197014997249744,0.15124320632513008,0.36532734945823453,-0.3937777560293641,0.34221205532352417,0.7643974709172621
26560,1.283,0.2262870219717768,-0.7198171321268778,-0.11238915991183522,-0.6465494232601975,10.821815739701167,-2.643402958501941,-0.9717184736797784,1.4187846765588688,-0.09259459849188884,0.36587695042281215,-0.39985245954219795,0.35280453475403123,0.7587059421167978
26561,1.292,0.23183550856497573,-0.7189281373162896,-0.11559167943137855,-0.645006351898633,9.371524730416708,-2.722084937355624,-1.25401916531172,1.5501600744318231,-0.16311016717318982,0.35566590044700586,-0.38865292660851286,0.37226341910092614,0.7648288568206516
26563,1.308,0.24379753358538042,-0.7168339634294136,-0.12292418678318864,-0.6415617474533962,7.190633876594679,-2.395946430331332,-1.213301403418537,1.7013560328049,-0.19308730391515203,0.3541543725512679,-0.3810072141616056,0.3855261283295143,0.749609371351322
26564,1.317,0.2501293309030619,-0.7155965698464669,-0.12677858151744642,-0.639753122942266,5.425012274274013,-1.7464574665734716,-1.2319330263729233,1.7953783312598577,-0.18910243929486084,0.382588894227255,-0.3870740421701937,0.40828801816039795,0.7423663540586358
26567,1.342,0.2697141774496706,-0.7107547128921222,-0.1368606450463808,-0.6350993342948594,4.488878079917066,-0.5675332975325599,-0.8934891406281517,1.786718984371646,-0.0347167832512899,0.4596886325046193,-0.3818736117792095,0.4381793016879035,0.7279042129566141
26568,1.350,0.27614669963040933,-0.7086636562233115,-0.13974772051907414,-0.6340421099904673,4.141427194424872,0.45914889440175427,0.09056136666437098,1.6763250640488416,0.11389880874575617,0.5152139070203954,-0.3845061469945146,0.45377096933322586,0.7174540047080067
26569,1.358,0.2822393329307283,-0.7066511742101865,-0.14226811949444695,-0.6330441209818599,4.139261075414951,0.842553122689164,0.23250131747647076,1.5920502351288337,0.15995933666778867,0.4938298285942228,-0.3732420669543753,0.46482504980799055,0.7108610234199715
26570,1.367,0.28802475576882924,-0.7045815753429943,-0.14473976881925815,-0.6321842635447666,4.244318525628603,0.9541486551287072,0.4186617895370167,1.5131136603407644,0.1693086447555475,0.4614076281607103,-0.373952646171183,0.47032558965404897,0.7065561215851079
26571,1.375,0.29339439896320524,-0.7025643739537363,-0.14702881764520698,-0.6314313532680076,4.218756158257449,0.8657373628116044,0.3725642382725596,1.4258986119823902,0.19552942712990348,0.40811171332559043,-0.3750987641617944,0.48067294046481135,0.6918596178642128
26572,1.383,0.29830397753869986,-0.700440814663473,-0.14929026553935604,-0.6309594430336629,4.2347058082479405,0.6582899531666506,0.3208966592869616,1.3228996866398874,0.23076562133833298,0.3381033396818732,-0.3755996853005425,0.49685978901296407,0.694348459393977
26574,1.400,0.3066308103308357,-0.6965103418342676,-0.1527029343629417,-0.6305019458421318,4.5293362755621835,0.05656821950126013,0.28102419733360945,1.111576536839902,0.2778344482340836,0.2918831489587154,-0.37820329620377596,0.506435237083369,0.6782001096771539
26575,1.408,0.310319651321733,-0.6945476175566507,-0.15416455036099966,-0.6305066314971866,4.748818542547838,-0.0014463307028974787,0.23597315302936914,0.9583862680397336,0.29478739359697975,0.27150709296664327,-0.3799376009639767,0.5114553784936313,0.6831839336176451
26576,1.417,0.3135367032670547,-0.6929252701686478,-0.15536195010556436,-0.6304061945488243,4.8824164088095,0.17985411064709683,0.5874384809760169,0.8460978215201216,0.2517447816507707,0.2375796450118013,-0.3771514761353383,0.5128711513116504,0.6633767119694233
26577,1.425,0.316164837176643,-0.6915115391175111,-0.15637316590374653,-0.6303959231987762,4.932371691756274,0.10791346067953614,1.255304043578504,0.6821096569986639,0.21343725654819712,0.19800949621193997,-0.37915770476604305,0.5231687350456274,0.6738332655766729
26579,1.442,0.31904606573549166,-0.6896417368205213,-0.1580529323379048,-0.6305736700444042,4.456372538601753,0.744888025409366,1.4144936163101884,0.4368697657443462,0.14502658978159227,0.03875567757418203,-0.3781103745957659,0.5240113580582171,0.6598943858769224
26580,1.450,0.31959228763726283,-0.6886714266497024,-0.1595353238761122,-0.6309840855638029,4.217201140443943,1.3358896243390943,0.3327731900183363,0.3472502953200273,0.10483631895416978,-0.2025043687523216,-0.3815505587706046,0.5334111621930487,0.6642621895888061
26581,1.458,0.3198218575429319,-0.6875791445838251,-0.16136689005811256,-0.6315929275760909,4.119789850244969,0.9704234021692691,-0.4435696162596316,0.3768884859909025,0.1435077853093358,-0.35434913819525793,-0.3830313872765258,0.5342294406182229,0.6674074974174423
26582,1.467,0.31988480149317455,-0.6862531466400461,-0.16389555752340956,-0.632351625857322,4.344079969576224,0.4930593288211643,-1.1002661754538727,0.44789066296625923,0.13294830631724158,-0.4975968727643579,-0.3832362246359068,0.5225404286536425,0.6596640638081117
26583,1.475,0.3198794443193939,-0.6849517198292092,-0.16696110533516179,-0.6329630889002811,5.007055735875734,0.12598225289639603,-1.6934416721783434,0.5400741289263399,0.07858198589687582,-0.6044021022742669,-0.38492599953526363,0.5268339651064097,0.6558754251219943
26584,1.483,0.3200338251202877,-0.683567989284905,-0.17060643690275643,-0.6334087136211619,5.7957828553831,-0.26570393713955676,-2.4150494976115167,0.6489532043240813,0.0125873077422616,-0.6498161978965504,-0.3917109178151887,0.5365750406225879,0.645807197237465
26585,1.492,0.3206574173761651,-0.6821512580352259,-0.17464129232900927,-0.6335210342650517,6.530087753884692,-1.1785434412937754,-2.7082083742566305,0.8195923778653307,-0.033765078933904104,-0.6388197075478446,-0.3922282234457293,0.5328226063880495,0.6515238131007058
26586,1.500,0.32189203205038,-0.6808047093484643,-0.17931602948423814,-0.6330373045891047,7.201349769238612,-2.3975501982896925,-2.3053906605099908,1.0187081860042286,-0.18092975851772786,-0.5881624842349784,-0.4002293446974857,0.5391204714638352,0.6405659487700661
26587,1.508,0.32392427096208404,-0.6798860525643711,-0.1844240592933087,-0.6315186367510449,8.320457251596432,-3.7432206363382337,-1.6061053730097694,1.245079878939899,-0.40375955624882703,-0.465244821409676,-0.3953423351381349,0.5520419093110767,0.6397515132661618
26588,1.517,0.3269886951357623,-0.6790841738478607,-0.18972317110662693,-0.6292282546326305,10.31558734501908,-4.2725045027085935,-0.5066235034446447,1.4508693250739153,-0.5353517795407232,-0.26059988513884663,-0.39211731955880574,0.5549429396312864,0.629675548032209
26589,1.525,0.3311995099847992,-0.6782078413655432,-0.1944039841504503,-0.6265365906653428,12.427509357922291,-4.003576352469322,0.7932822453907782,1.5876267140065423,-0.48327887971658534,0.02346793287167957,-0.39334895446195556,0.5564668698185085,0.6318260297940294
26590,1.533,0.33634347293242545,-0.6771407464832585,-0.1984541748413597,-0.6236741281758338,13.522082363826016,-3.3802636225797,2.0939940966649697,1.6516240773083775,-0.4085209759707278,0.2917541760236775,-0.38157684577891665,0.5669268472923971,0.621344015882957
26591,1.542,0.34222431444614887,-0.6762704780348194,-0.20221074187868357,-0.6202028498880776,13.248368138960378,-2.508263297091695,3.2046650823460636,1.7590926197811163,-0.4709166550552681,0.48728825132395326,-0.3852228652461542,0.5753891212410976,0.6181649805837448
26592,1.550,0.34831430421255927,-0.6759736564525564,-0.2064586866176188,-0.6157203683355054,12.547379224205857,-1.5179540074808116,5.031371063821119,1.85102024058435,-0.7647983148406086,0.5603568891885665,-0.37762673878315645,0.5886727836651325,0.6127140230730792
26593,1.558,0.3543534920260961,-0.6762904160000738,-0.21105855916557079,-0.6103434774930525,12.236642221847301,-0.804806236026979,5.6610519749142325,1.9054728639021374,-1.0208949425662184,0.5744897646494124,-0.36928567727557104,0.6028663979820207,0.60479980757167
26595,1.575,0.3668105177806686,-0.6758132022393025,-0.2184656982066934,-0.6008321716016879,13.343295359114633,-0.03478262304348831,4.633232916394577,1.8124065775562104,-0.7617652339314448,0.6843983634401168,-0.35111995094542364,0.6235820527989923,0.5852794263686628
26596,1.583,0.3732709172184231,-0.6749521670245733,-0.22097291700612476,-0.5968914177114247,14.162117251012173,0.8528762313182449,6.053061592569809,1.6807118101978655,-0.43198941517633516,0.8277908319273067,-0.34497006722764334,0.6367663387555629,0.5761603196617406
26598,1.600,0.38575840492238084,-0.6729417969992885,-0.225018895631633,-0.5896662509350773,15.90843902273995,1.2178474045504883,5.0019587943568675,1.5900672636736124,-0.31421848756930904,0.8210959136710912,-0.33929462432507695,0.6603785545988216,0.5643133831511975
26599,1.608,0.3917426295948429,-0.6713631521120677,-0.22669979281708452,-0.586870031677336,17.592562772937917,-0.2702044215845028,3.3803101101204764,1.4808043379328213,-0.09997018113656382,0.7730731155001439,-0.3236183955055677,0.6647438892257751,0.5542608703695864
26600,1.617,0.3973947013598409,-0.6698430474468715,-0.22817582187937577,-0.584229011114548,18.017880091226438,-2.1769774100411197,2.667515204016704,1.411800407987841,-0.06264013539489556,0.7155534588371174,-0.32972085725146466,0.6718213600417033,0.5540377633767083
26601,1.625,0.4025378814387322,-0.6686039786090261,-0.23013013507649835,-0.5813536743882085,18.068631929928696,-4.060038288111822,1.6019730481913554,1.3644990877793821,-0.22204460647954039,0.6239913321032671,-0.32208073899479295,0.6804736060235931,0.5399203434390977
26603,1.642,0.4105925166636923,-0.6669041605848436,-0.23619709356322485,-0.575207405069412,16.84202007905869,-5.37217838321173,0.28450496978115,1.3259204188801068,-0.45417678771579534,0.30644875286793144,-0.313221306665253,0.6881562742321514,0.526079667451255
26604,1.650,0.41327578260282727,-0.6658025477924118,-0.24070831160709805,-0.5726863046995403,14.888546458829689,-5.520864232012384,-0.2723866089089532,1.2784453488255174,-0.5564551721012841,-0.15163328736393225,-0.30610344927459304,0.6930825863708265,0.5186550536715039
26605,1.658,0.41543012476657926,-0.6643680531717793,-0.2457359335043334,-0.5706546699589151,13.054768280766352,-5.020034635743974,-0.1861772771768752,1.295860693123413,-0.4913001038139347,-0.4084182990333526,-0.313147572515826,0.7014388587542322,0.5115539074804643
26606,1.667,0.4174448064810487,-0.6622874578887737,-0.25114822265879044,-0.56924487430328,11.213049902243691,-4.135402227375156,0.11942722015380282,1.3348816279988567,-0.3560133013256479,-0.5622161403933253,-0.31435804130916606,0.7126188160877845,0.5095346275646517
26607,1.675,0.4194754649026197,-0.6597747843217856,-0.256477192092029,-0.5682930742622697,9.830841621043072,-2.545011920237976,0.6756887399215633,1.3596553492430756,-0.20277196613336634,-0.638070799040769,-0.3089663605552656,0.7095775808111711,0.50549258279754
26608,1.683,0.42151836100305357,-0.6567951029805923,-0.2616906017673167,-0.5678560495272307,9.16739382724439,-0.5624293346816542,1.5452321739728059,1.3431957231219438,-0.053745757259168324,-0.6712327182738909,-0.31886198770670243,0.7182486241845997,0.4829816932459481
26609,1.692,0.42353305396043195,-0.6537567839804183,-0.26645028300536105,-0.5676495981579603,8.710766623323337,1.0142890791643995,2.1018790443503006,1.2862276491179636,0.043731605240592185,-0.6509477907738361,-0.33257942161073595,0.7192259049577163,0.4919221795803195
26611,1.708,0.4276083927967729,-0.6478560567261196,-0.27475377647153904,-0.5674010525965489,8.501194176527083,2.1738120913804364,2.064786723095188,1.1843815715829251,0.10010107802379001,-0.540963744755676,-0.333738129465214,0.7281752024400444,0.4797059016708443
26612,1.717,0.42968117073274265,-0.6451334969418885,-0.27831288504775836,-0.567202609882627,8.425228937464519,2.0736889942776084,1.5186964426251313,1.0830280278405648,0.11259742652295551,-0.4079903382150516,-0.32827780978561344,0.7284303475495888,0.4621418651655436
26613,1.725,0.43172315657071364,-0.6427020238213627,-0.28148109570812513,-0.5668488488261203,8.506451611053524,1.38307272409075,1.1160737965157703,1.0230172244187046,0.09467623910923005,-0.3409682154554782,-0.33532598574543104,0.734365988048581,0.4558391118202578
26614,1.733,0.43379118278985507,-0.6403537739621957,-0.2845294948268521,-0.566405526526471,8.517615692837515,0.5265230384143222,0.5714391305079516,0.99036339653111,0.07278499902157759,-0.27944536743990267,-0.33899628242351554,0.7375850230646758,0.45744273069502084
26615,1.742,0.4360210662412035,-0.6381553897152072,-0.28738226232227926,-0.5657338275848858,8.358414225497116,-0.16369530525503323,-0.03475318016569411,1.007059866275869,0.05633489225366953,-0.21887714513300854,-0.3430749649679068,0.7447729647398219,0.44330557610078725
26616,1.750,0.43843892445575555,-0.6358096222658042,-0.2903265384056511,-0.5650025972096836,7.8488133019153885,-0.6935698880058128,-0.39724558097167456,1.050395705799408,0.060796176523623596,-0.18580048726547885,-0.3464625920460548,0.7397263229382358,0.4373195372956478
26617,1.758,0.44108457895140046,-0.633486870131508,-0.2932363962144473,-0.5640489300738156,7.420344453055998,-1.047142166943325,-0.5926258348518965,1.1113221120917456,0.051198580097850686,-0.15079706502609833,-0.34253502995722784,0.7418101527352254,0.4331309316750407
26618,1.767,0.4438947292785637,-0.6309976104405524,-0.29634579123616794,-0.5630085762700543,7.17602930928612,-1.2346771119846813,-0.6320584579766502,1.1696865617934928,0.042267959852893805,-0.1361521564952743,-0.34342530043488145,0.7381737365557818,0.4161287696204854
26619,1.775,0.44684499825475144,-0.62855536866257,-0.2993674292638348,-0.5618067624692101,7.046588401570701,-1.19877694380952,-0.5544297975189878,1.2031203976203657,0.03839606649553619,-0.10943700224221865,-0.3455834566219058,0.7518858745349195,0.4084185633123896
26620,1.783,0.44984479148651396,-0.6260360695525824,-0.30246527408171286,-0.5605651266055387,6.9756217471205035,-0.9358950032838914,-0.33187516024439023,1.2143088163808218,0.029909314516232955,-0.09011041557701008,-0.345088617696976,0.7545373069414616,0.40712792883732685
26621,1.792,0.45284689853782845,-0.6236884335048503,-0.3053731237469797,-0.5591866233109903,6.959993272209148,-0.6027016229401811,-0.17417051080192683,1.1984340909691176,0.013836230957265674,-0.060049295237887296,-0.34799268964679675,0.7512255205557339,0.4020741837699322
26622,1.800,0.45578373479858086,-0.6214405237621671,-0.3082610602968371,-0.5577167571661543,7.010478227821471,-0.29323331319388923,-0.0909693226911544,1.1649744950434833,-0.023796204755319614,-0.023599828251388948,-0.3437738089822308,0.7628262504446042,0.38859205669018454
26623,1.808,0.45861438924777626,-0.6194937215541771,-0.3108805815688553,-0.5561057767486827,7.140312219558087,-0.059571842799127944,-0.010670192490372718,1.1079676704828127,-0.05770956407988771,0.01348957403918391,-0.33691418130613293,0.7734452302664349,0.3839423992420329
26624,1.817,0.46130807340449526,-0.617709031108004,-0.3133826297479441,-0.5544562576720615,7.272033001987523,0.03449867163115468,-0.12797830762018375,1.0395815099499885,-0.08987889691368514,0.05417635177363042,-0.3452141548744295,0.7695337936839538,0.38376221684989836
26626,1.833,0.4661428761842719,-0.614930286452034,-0.31754736053035965,-0.5511217974339944,7.478756241819447,0.058105865849435785,-0.4388214402541245,0.9180921241915415,-0.11389001158703335,0.08562601761137315,-0.34196402682576327,0.774742829225451,0.3687390500180635
26627,1.842,0.4683972241405861,-0.6136285759677885,-0.3194124089569859,-0.5495814081439012,7.552452265716041,-0.0816760960337431,-0.7808448438846686,0.8207600004537486,-0.10453136097259133,0.12926451870676528,-0.3370195385634486,0.7729472700271605,0.3566012067149963
26628,1.850,0.4706100156901308,-0.61253057929805,-0.3209638661064003,-0.54800976196685,7.701719403041614,-0.16635774924229688,-1.0115164252362174,0.7781360168885526,-0.0960166164528993,0.1496729822126868,-0.3384965051830475,0.7927948793421726,0.3589857159966181
26629,1.858,0.4727833415194771,-0.6114058244556838,-0.32239037936993964,-0.5465558279746455,7.9766000191500765,-0.11280649255874545,-1.1487117940336147,0.7327636250506832,-0.0698450405217775,0.17483916255792592,-0.34332682672580034,0.7864087321906765,0.3486325103366531
26630,1.867,0.4749073443956751,-0.6103790617998774,-0.3234708651060262,-0.545221986518252,8.277601574871557,0.06207326481770798,-1.3276025551576076,0.6770019432463655,-0.0249256576598003,0.18821143398651746,-0.3335267081476702,0.7857351280158291,0.3418619989088621
26631,1.875,0.47697385889145083,-0.6092680418830582,-0.3243699370215038,-0.5441254772852021,8.493490352392689,0.38062362457956345,-1.2363084349925058,0.6192028255708891,0.03224503942969309,0.20226783013952498,-0.33571017857922036,0.7956749564669355,0.3391387442735224
26632,1.883,0.4789673795083068,-0.6082777026393666,-0.32489468893677725,-0.5431684148948603,8.708288727825183,0.6518571383984982,-1.045542231688253,0.5519174756085838,0.07816964424902156,0.21574982664824388,-0.34085585503270893,0.7852735269715717,0.34281426127125314
26634,1.900,0.48253033703096715,-0.6064577333897019,-0.32547446654887136,-0.5417008981729072,8.653130591114877,1.07826419918288,-0.5621255415442038,0.455380807036752,0.10880424826786908,0.21779050890538093,-0.33447533168743915,0.7904703902193609,0.33635549497792283
26635,1.908,0.48393892642067626,-0.6058623847498223,-0.32588332058103103,-0.5408640749829322,8.54146204149108,1.2998620339119173,-0.20271883104861357,0.3800385775406993,0.008931642008605224,0.1999681645772226,-0.3331741498702396,0.7988322097986437,0.3205041461409814
26636,1.917,0.48522074203203164,-0.6055187139967154,-0.3262786737585781,-0.5398612280503131,8.738582189956148,1.0647438073614859,0.007196458911718805,0.3599828887564399,-0.05271268852661484,0.19559903278910498,-0.33199330613066896,0.7975799086224898,0.32835961489900084
26637,1.925,0.486501005169097,-0.6051860831321734,-0.3267396067847078,-0.5388021957182171,8.71664689975281,0.890235205294651,0.08098427552837952,0.3547729914453446,-0.07395619095789366,0.2202896400992541,-0.3309835046761415,0.8049732283303952,0.3218139596580905
26638,1.933,0.48795909453018554,-0.6048935087810878,-0.32709784350351184,-0.5375934950082064,8.956272765632049,0.5271237852052459,0.276797462874483,0.39126127491187834,-0.07256383389724894,0.2511264137028783,-0.32266602510916853,0.800975665476112,0.3185454288447328
26640,1.950,0.4925874360323362,-0.6029746289691726,-0.32809840552613295,-0.5349118160723197,9.431541526611996,-1.0311850981783066,1.5411161724521127,0.6144559812895591,0.04167483459352054,0.32000491706529144,-0.3246188559132291,0.802928071218437,0.3184825146229849
26641,1.958,0.49568455389966715,-0.6016112770097256,-0.32932155717282324,-0.5328301853135602,9.165785332090152,-2.7345813559927454,2.1655908582698102,0.9190422472907196,-0.04033236271798271,0.38210360691320444,-0.31918417582720954,0.8150434029342123,0.30596952413909534
26642,1.967,0.4987858016693853,-0.6007919430545332,-0.330800041007072,-0.5299368812259699,8.691583263559428,-3.674437071490517,0.5249265415073412,0.9682598815309056,-0.2566000399624471,0.45113248964590874,-0.31427785523540924,0.815161576793215,0.3013507805319688
26643,1.975,0.5017007281023612,-0.6005701417723692,-0.3324654432383436,-0.526382573120928,8.219951354515961,-4.471475098192032,-1.0682322437481115,0.9299425093540938,-0.46989578403012183,0.5491317600349602,-0.31233142025087623,0.8117779922333008,0.3026736826968636
26644,1.983,0.5043068577148768,-0.6011811955681399,-0.333697371048641,-0.5224000650002206,7.74440724337147,-4.207382776681497,-2.2118879953970225,0.7818354411630654,-0.6102554424204254,0.6599633307759216,-0.3115748314885067,0.816289079012535,0.29791462135604385
26645,1.992,0.5063948653202538,-0.6023930385720636,-0.3342694348947728,-0.5186046782977647,7.89374635368494,-2.1605967114446227,-5.035490106612387,0.5213326249542977,-0.6237323082430531,0.7444101767979926,-0.3017965015605616,0.8284319890215881,0.2954365131787843
26646,2.000,0.5082600539341856,-0.6037533000764332,-0.3338892616348379,-0.5154334401128612,8.71521780855655,0.7657910148076241,-5.786587219473081,0.3183216220442732,-0.45347481500561293,0.7683130150804829,-0.2966526410837721,0.8256546797562581,0.29211874685491795
26647,2.008,0.5101350475330457,-0.6042667773862824,-0.33318885490788913,-0.5134287506468878,10.319280165994352,2.482932421479991,-3.158054380849285,0.2735897378164601,-0.13640620783252144,0.6421149062042913,-0.2849277807551628,0.8261096557026846,0.2909447436931836
26648,2.017,0.511903690893962,-0.6038120075252105,-0.3325547628306662,-0.5126138903074654,12.237268124295497,3.087827441043888,-0.4744052195073871,0.30401604838382035,0.1462627332836014,0.37614789079739247,-0.287097826064356,0.8345123037709068,0.28557671582251687
26649,2.025,0.513447028599287,-0.6024294665817069,-0.33259407785956807,-0.5126714990999476,13.36247517438814,2.8114194609403835,2.2737884537385673,0.38167289590602393,0.29417022688921424,0.10121231986006773,-0.28124763539306924,0.8313860201244453,0.28740091636607423
26650,2.033,0.5148931656864034,-0.6002605732215648,-0.3333376826042644,-0.5132818538787165,14.432955949821434,1.0763508272098603,3.8186695117273337,0.5211431047962536,0.3831540813487352,-0.16994737567987112,-0.2865723868389111,0.8343135508359788,0.27825776714335704
26652,2.050,0.5195731647457987,-0.5918209738301309,-0.336691157367548,-0.5161692803347484,15.614237286616257,-4.041016572654152,4.179244596557869,0.9424300507969421,0.7197905931805639,-0.44007010378398653,-0.2894533531283566,0.8367397299162691,0.26865216545068377
26653,2.058,0.5222066934579562,-0.5862048464486093,-0.3393563459243837,-0.5181711278995782,15.831062395011426,-6.44557998039417,4.4418022047270584,1.2260944720809006,0.8800713885361757,-0.7097717755483479,-0.3044873638683308,0.8249568886801014,0.24838008539287798
26654,2.067,0.5243156846096086,-0.5806736150275533,-0.3430975003445613,-0.5198031559547368,15.08031551759397,-6.7370583923920515,3.314575958204279,1.3205253314934053,0.6447501883085612,-0.908377244105513,-0.3119905632518554,0.8382858488869989,0.23552424121524465
26655,2.075,0.5257228981484577,-0.5754206042647902,-0.34792966724671,-0.5210100855065332,14.115936990191768,-7.187843220748709,2.4272995386489926,1.3409480661051292,0.3595746825292651,-1.051117349601319,-0.3317795223092894,0.8459309223124796,0.2381470562278514
26656,2.083,0.5267933542070284,-0.5705527799242743,-0.35337869408063316,-0.5216145951311731,12.14817293931225,-6.279329951578151,2.2783183837352503,1.3902309338575238,0.12355906013105016,-1.1052673735878011,-0.3294692616651126,0.8294514915578116,0.2158924110762599
26658,2.100,0.528827953117336,-0.5618922169447325,-0.36581280396300253,-0.5203836325206515,8.950907726365653,-3.6773894247862158,2.6362576650916627,1.5067989010681115,-0.21474771904921292,-1.0132932512639523,-0.3386557501837981,0.8311643158762688,0.1979702210080599
26660,2.117,0.5325253157955238,-0.5546669342248282,-0.37694367008359103,-0.5164057026199667,7.00679306424977,-0.34467444928265645,2.8052326828737253,1.5690582736937781,-0.3453523172348716,-0.5882637556878575,-0.3571166153923858,0.8355484478947611,0.17943996857618036
26661,2.125,0.5356034744399525,-0.55142705401426,-0.3810586240986532,-0.5136647226246389,7.1099648317334685,2.105372792990646,3.4477300497228454,1.5673986253748293,-0.20786865084972023,-0.09515155372340671,-0.35070716773504423,0.8347290915676331,0.1672830608146344
26662,2.133,0.5394139112076632,-0.5486382095694193,-0.38389005746460436,-0.5105459540295435,7.791902935774073,3.7337375975435965,4.367650189428294,1.5011940457944406,-0.09124352419288158,0.23115669509553136,-0.34501298549639664,0.8413891812202121,0.1517444414130116
26663,2.142,0.5437287307291454,-0.5460110583246961,-0.38574878270106894,-0.5073744851797942,8.541780211622081,4.184390488812068,5.048998301741738,1.4163640095783667,0.049114621994625844,0.4745389190968876,-0.33526044062175114,0.846343071652165,0.15434603508321365
26664,2.150,0.5480378430336657,-0.543623487562042,-0.38677888332664817,-0.5045097836380191,9.215508601242789,3.4081533680253937,5.461454747982264,1.272560894614232,0.164717433565747,0.5410234411360143,-0.33127927893109127,0.8415460277642466,0.13959821155873514
26665,2.158,0.5522446845182607,-0.5410599178167088,-0.38773933577335934,-0.5019344391925483,10.198922006690434,-0.9808052091856215,3.5407485513124066,1.2296120335979228,0.22569365862125254,0.5132667570055643,-0.3304885697453288,0.850759251257858,0.12811736547966104
26666,2.167,0.5565420434252925,-0.5383974711325422,-0.38881175524474915,-0.49921391803672843,10.861482401041757,-5.748385291427152,1.7706299131943068,1.2986698358982327,0.2114688550145293,0.49085262061556695,-0.3412234550327585,0.8487670949285473,0.1266515524670264
26667,2.175,0.5606817221829116,-0.5355828731921431,-0.39065977308375494,-0.4961571666794741,11.030740583919677,-7.836465404638931,0.838313622731093,1.4049973174182326,0.07157026519938561,0.4260471445924429,-0.32794015294767026,0.8538502536112567,0.10704229161057377
26668,2.183,0.5646368300148653,-0.5327951768979606,-0.393411429903323,-0.49248552921528366,11.083693325381523,-8.582925037269682,-0.13954122048644013,1.5601117087119538,-0.14919983692969313,0.33841288601683334,-0.31960479198937813,0.8536647508719906,0.10025109456638771
26669,2.192,0.5683634722203812,-0.5298696556609902,-0.3972480708158544,-0.4882571880560269,10.656723122666572,-7.727526080077653,-0.3063988560701595,1.7124390638967817,-0.3676484045357828,0.2550455577420919,-0.3280726631124828,0.854230197677635,0.08505027066650199
26670,2.200,0.5719524578002311,-0.5269185393098823,-0.40180871069727053,-0.48350491099430754,10.108718901490201,-6.155647546078065,-0.05356837274671386,1.8504377182084641,-0.5441594450400221,0.1836752954249629,-0.3275426667304812,0.8601128373939797,0.07683355395440408
26671,2.208,0.5754860540280404,-0.5238226080043904,-0.4069466626248796,-0.4783514301652991,9.648647449230989,-4.272193191412576,0.44059558797187137,1.9518023541844347,-0.6583795658596469,0.16785759006840917,-0.3152786393912868,0.8610283364827098,0.06563620376587215
26672,2.217,0.5791020423236564,-0.5208421425631842,-0.41207485003629196,-0.47281984420530543,9.398149395422525,-2.677089938695276,0.9099699877027568,1.999397542355598,-0.714967982174743,0.21415599767154822,-0.3164127110566648,0.8598324274811723,0.04856655232128765
26674,2.233,0.5867557387236748,-0.5150537903493008,-0.42175424432932473,-0.46104300614135163,8.766039507274119,-1.1001231645835214,1.105265451720387,2.008709993103187,-0.7094234448558314,0.34522432745504233,-0.31580802169287975,0.8589656175672734,0.025635183940710786
26675,2.242,0.5908109910814148,-0.5123109731638577,-0.4260548601834472,-0.45492537377833897,8.145365147798744,-0.2952968415987291,1.1761715727113387,1.9717551319337632,-0.6563464354079963,0.4994608652400604,-0.3135558677635051,0.8706392235322841,0.014827666049247906
26676,2.250,0.5949502309866762,-0.5097550057583587,-0.42990941664152904,-0.44873371863070105,7.76957213573098,-0.061495958018387066,1.0997071609412665,1.9312685414929327,-0.6217065639837789,0.5684158831473102,-0.30199215019192294,0.8616138162679535,-0.00269768592451863
26677,2.258,0.599080766434135,-0.5071576786147903,-0.4335609310832417,-0.44262652806737596,7.8249699027164965,-0.0343312912770424,0.9299252189781505,1.8895117792247997,-0.5729891490904662,0.6032848801068217,-0.2985302899978392,0.8745673017023957,-0.011335704389287157
26678,2.267,0.6031398917988247,-0.5046004912926405,-0.43688005043534617,-0.4367338281376178,8.141625251789185,-0.18964965213950402,0.8839717872330074,1.833502709451304,-0.5170449751301673,0.5855429935151727,-0.29749628953378754,0.8686427555951571,-0.022648608003080196
26679,2.275,0.606977777225399,-0.5018733604580345,-0.4401575521016124,-0.43123362269770926,8.585614173753955,-0.43558322445533654,0.7408565003060346,1.769571915376041,-0.45939390654289486,0.5204467498594398,-0.2979350793968838,0.8678896502463385,-0.03239973945478634
26680,2.283,0.6106558903647691,-0.49909691894128877,-0.44323049919526664,-0.42608493713019097,8.980844221084208,-0.8134750654044907,0.5616834104332853,1.714708907678954,-0.4047335901121505,0.44804161407833587,-0.2936909908468495,0.8734940358537838,-0.05084786528178583
26682,2.300,0.617487611013351,-0.49298442018111316,-0.4492209687047612,-0.41698433181556427,9.349468574974239,-1.4307050964742436,0.4486927994538048,1.6443053232847096,-0.3133114883890806,0.3287960098095853,-0.2809280437064056,0.870689148295176,-0.0641397899155458
26683,2.308,0.6206937722955521,-0.4896914530363525,-0.4521866587680974,-0.41287861108176516,9.495215335649663,-2.023614060130219,0.5550962058404062,1.595592105384325,-0.24764041663268838,0.23449082391051138,-0.2828056098323146,0.8700409666096982,-0.07902998101791514
26684,2.317,0.6237986175478549,-0.4864070710318187,-0.45503740197203013,-0.40893081175447943,9.627878156895143,-2.245002565452385,0.6777880177559807,1.5690322337783085,-0.2319960962939049,0.19037489862833812,-0.2802850185261156,0.869128858912937,-0.09462338305445814
26685,2.325,0.6267704494189745,-0.48303762517169596,-0.45792032443069897,-0.405144952920444,9.773200595944102,-2.4077868565889142,0.7855442044066481,1.5530463442510918,-0.21745561889411072,0.16788701867787004,-0.2853668040427232,0.8725511161578826,-0.10353449546323905
26686,2.333,0.6297936454453541,-0.4796753768214198,-0.4606716794440882,-0.40131421702457004,9.81861816171748,-2.426143326032159,0.9492651805620071,1.5486086754298543,-0.20395404819220894,0.16867447275452993,-0.28603807766774325,0.875399145695445,-0.1155826695302609
26687,2.342,0.6327498087032185,-0.4762916012515581,-0.46344367482633975,-0.39748452853755906,9.779064746693441,-2.2722417720246533,1.0809863381627935,1.5477554223593555,-0.2059866641571591,0.18436951337295418,-0.27911528168231453,0.8676072422157294,-0.13267659745866384
26689,2.358,0.6387047196585736,-0.4696277667642181,-0.4687625341669922,-0.3895737777767587,9.419294706204989,-1.9890998693029573,1.29028874057166,1.5439948064268767,-0.21291553097471416,0.19685266487693176,-0.2824354413852339,0.8663517073337137,-0.15195383045329564
26690,2.367,0.6415250695142218,-0.4662062080607805,-0.4715746618525137,-0.38563544319609505,8.932193678185445,-1.6803903245168696,1.2460456333152494,1.5550058642987867,-0.232035444706845,0.1917625684308981,-0.27239333212461536,0.85909535887635,-0.15830017970526022
26691,2.375,0.6443760072086075,-0.46275950796609255,-0.4743556882212953,-0.3816017297824711,8.640188124090937,-1.5723541341466718,1.0455703320598717,1.5674308775632642,-0.24305362338212766,0.16945446621787214,-0.28111742615332036,0.8619235131204196,-0.17112139224614997
26692,2.383,0.6471927471072068,-0.4591362330748228,-0.4772064166269506,-0.3776367348388584,8.622672108375781,-1.4388285441537596,0.8350533686028827,1.5913375328869608,-0.22520047885022326,0.15464239307121602,-0.2688652543070968,0.8577735730160247,-0.17998318900973187
26693,2.392,0.6500933161529473,-0.4553721388577048,-0.47994472103958474,-0.3737217684209188,8.616936933922677,-1.2932790545001978,0.6596214107349463,1.6044608376913918,-0.18736343021172414,0.12524497689441524,-0.2727343233455529,0.8573307693633061,-0.1873178194507239
26694,2.400,0.6529427436715789,-0.45142829468055695,-0.48271241596229736,-0.3699553915329212,8.807895408776135,-1.1639226096522428,0.6128106919894666,1.6143229826629404,-0.1557842890253714,0.10055081629091361,-0.2704390574531189,0.848991138567531,-0.20661847155661128
26695,2.408,0.6558341496004468,-0.4474175853295632,-0.48534187804602097,-0.3662544661440779,8.998167274163409,-1.0023557420519043,0.6214897113977822,1.6073483254935266,-0.1245632002731605,0.07592873046501385,-0.27723636929318507,0.8497619634059344,-0.21424514581652704
26696,2.417,0.6586417632603878,-0.4432886247066988,-0.4879484782391596,-0.36275681313929825,9.310142083845026,-0.7902620550212,0.5861811812400958,1.5932215830947989,-0.08811133580283811,0.05232720278723177,-0.2769324663250424,0.851640415170165,-0.2260178151990203
26697,2.425,0.6614819462639512,-0.4391638300879369,-0.4903695457299996,-0.3593250251929346,9.544715397679129,-0.7099214308690664,0.7621523404992399,1.5700232498401274,-0.05771353467465251,0.03988891538255365,-0.2676453707259443,0.8423068620136427,-0.22791540080860948
26698,2.433,0.6641651515806473,-0.4350389987194821,-0.49278065228542456,-0.35607997662345187,9.557649143967078,-0.7492324773678178,0.8114185445952597,1.5326998103632845,-0.04403607916539631,0.02418645133476784,-0.2763263136909288,0.8344023318708014,-0.24923745046447
26699,2.442,0.666786622605738,-0.4310263781425942,-0.49507056420372775,-0.35286966109076867,9.597203533168988,-0.8839362916401522,0.8307338731300642,1.4917128602054726,-0.04814776299886267,0.01351040306971568,-0.27168927120590636,0.8410049514468103,-0.24890468461454218
26700,2.450,0.6692258328478473,-0.42710121826718545,-0.497355622186601,-0.34979811189194543,9.617242536293562,-0.9319365846793315,0.8123701765259694,1.4440928914048516,-0.050939866206024496,0.012677829596731293,-0.2689402488563682,0.8340710769792545,-0.2614026511900159
26701,2.458,0.6716408959540668,-0.42332839701162617,-0.4994370097464568,-0.3467769433816262,9.663717379833804,-1.0790188770683025,0.7663702004146955,1.391919087196496,-0.03994989903080646,0.016434381388906016,-0.2776568764026685,0.837103531354129,-0.27569477418531235
26702,2.467,0.6739322679591963,-0.41964266528177124,-0.5014312583381849,-0.34392153878460424,9.768012090030634,-1.208178393936989,0.61656576138087,1.3404007323182852,-0.01961890918443689,0.025100084195765357,-0.26932929006102746,0.8254807703678578,-0.28095435777471356
26703,2.475,0.6762231189927901,-0.416096596885402,-0.5031848182449489,-0.34116118490802544,9.87716884263345,-1.2429777901483676,0.5621049449878138,1.2842846381010629,0.005529408866343731,0.026127730875248712,-0.2748772537526153,0.8273194715451029,-0.294221054964883
26710,2.533,0.6891051497929758,-0.3944256554072525,-0.5126932772775636,-0.3266620552187715,9.727526691646927,-1.2306445520972638,0.5901289721529455,1.0508566292431694,0.0504144213584235,-0.022791880852048564,-0.2768554682476818,0.8063654708923242,-0.33738009802542007
26711,2.542,0.6901786090160836,-0.3917367069734332,-0.514129667641753,-0.3253713646232793,9.310935387296544,-1.4240845836134366,0.6102945128410655,0.8282155275124884,0.03507935616401071,-0.0843657767034686,-0.2763329774487463,0.8027632581039892,-0.344118201382565
26713,2.558,0.6922486450859049,-0.38722266625499546,-0.5163902955510153,-0.3227870548455072,9.228702352164635,-1.3270990539150784,0.5994174467364387,0.7213371355050509,-0.00273421121517709,-0.09339503739589795,-0.27772247039043263,0.8006507721117677,-0.35896616387958147
26714,2.567,0.6929683340813793,-0.3851417430705656,-0.5176026349292565,-0.3217891204179151,9.168775464047906,-1.3530959913716971,0.39674568699510226,0.6358134973568771,-0.019033926082074985,-0.11558099449741585,-0.27745399391294695,0.7973456108238708,-0.3637597509252079
26715,2.575,0.6936383812706759,-0.3832222744456231,-0.5186729958192422,-0.3209124612800395,9.254687675807695,-1.390660990852138,0.32520195287401793,0.5749402442168112,-0.024210929658554224,-0.14318487611356862,-0.27498114992768635,0.7918042424888725,-0.3699468449132956
26716,2.583,0.694110493021911,-0.3813121484260058,-0.5198542878790263,-0.32025488023356274,9.130371636160389,-1.4620457013177954,0.2792151469266678,0.5384721216815712,-0.03182697933228228,-0.17952966045528768,-0.27912402060027863,0.7920085426196775,-0.3714388228767741
26717,2.592,0.6945409479112409,-0.37941482395790643,-0.5210104191418564,-0.31969580257046365,8.970240121575245,-1.6025429495082708,0.13792591542208027,0.5158968326326762,-0.03878989265343214,-0.21977657499210873,-0.28276529207869694,0.7899435102142265,-0.3755532205076637
26718,2.600,0.694777201486023,-0.3775210044256531,-0.5222894648845231,-0.31933719855872567,8.929910959854169,-1.61503522190173,0.04550766667380626,0.4840907943133648,-0.04917412526736448,-0.2546631685145053,-0.2808448439226525,0.7779066017704686,-0.36911086642043334
26719,2.608,0.6949763440155576,-0.3757063767555272,-0.5235111422733119,-0.3190433883340882,8.818637597851028,-1.5953220057978323,0.010325994774659791,0.45261414490881424,-0.059298138538273884,-0.2776294930504932,-0.2818094319894471,0.7927406947730494,-0.3714723298318457
26724,2.650,0.6942014511108234,-0.3686156677119825,-0.5298568870010676,-0.3185255313007334,8.581947281287666,-1.5368046335741081,-0.027754797934968243,0.3347139884945235,-0.12148694909470589,-0.2872270882473687,-0.2973376481710497,0.7739068831122772,-0.3905785727636219
26727,2.675,0.6919444982981973,-0.36572874681167133,-0.5349362386507553,-0.31827427732790864,8.436310643443095,-1.1242420345473387,-0.528261225029581,0.23732821345240912,-0.2900257961912503,-0.30470727831876826,-0.30149140456133,0.7670867132098015,-0.3899260447759732
26728,2.683,0.6911432854074844,-0.36469367611739145,-0.536770349614004,-0.31811487455224735,8.47520740040088,-1.3355186487238913,-1.1274534170706196,0.26755637139968763,-0.3091077859298469,-0.3026279744888358,-0.3112245265730055,0.7681347142551502,-0.39635397736296896
26729,2.692,0.6904444793471524,-0.3636188194641618,-0.5386073231120203,-0.31775765381912235,8.46710142655051,-1.62946501587038,-1.447330280622385,0.3048260676221917,-0.33632936545892167,-0.30385906636201043,-0.3041664065130473,0.762390123691301,-0.3920102296193991
26730,2.700,0.6896134767247429,-0.36241420818586945,-0.5407317794426535,-0.31733001296033,8.414322711078087,-2.0329911721910303,-1.632962384471148,0.34857556393879363,-0.37925204854602257,-0.3220197284123928,-0.3088061565487292,0.763128900942504,-0.3918096031227321
26731,2.708,0.688829087207376,-0.3611041875621799,-0.5429980140915955,-0.3166566137548603,8.435902493173451,-2.4577723060527252,-1.6897514342958257,0.40989605131588036,-0.4274234468716853,-0.32893414212321614,-0.32077003097558254,0.7638676781937068,-0.39164615458325064
26732,2.717,0.687896070185636,-0.3597321721577606,-0.5455926256019067,-0.3157854458752587,8.523954206089897,-2.844297781918498,-1.2963839002294943,0.4611654955519134,-0.4955398652639746,-0.32301361226570446,-0.31706574839089785,0.7643745770208269,-0.3999450581463521
26733,2.725,0.6869485909596615,-0.3584174456002878,-0.5483618302205561,-0.3145439098521271,8.966095344243614,-2.962631238137013,-0.19173938974038324,0.50920411427141,-0.5814875444285057,-0.2962671700941779,-0.321686921765026,0.7559774761484813,-0.4034040673664373
26735,2.742,0.6849862152099307,-0.3565278019262441,-0.5537732325303423,-0.31147555017835826,10.395635913770727,-1.839577249641217,1.4479960812683432,0.48131336884015674,-0.622245756984056,-0.18602883647124965,-0.33490098507031085,0.7495471091160768,-0.3974349705847278
26736,2.750,0.684148462813365,-0.35636054559726377,-0.5557422855671159,-0.3099976683853747,12.197558234157357,-1.264412267064218,4.001664129224249,0.3059798683954858,-0.5308825811479766,-0.003612949258986857,-0.32073662223681365,0.7544082481783968,-0.39822773617137924
26744,2.817,0.6767984357765914,-0.37502004489873403,-0.5541631401397337,-0.306931681917949,14.148536810925824,1.7940509601670596,5.075969714789373,-0.42058508154855984,-0.3056880967660408,0.31681559467266324,-0.32059479598369894,0.7676553937213081,-0.37807100136805766
26745,2.825,0.6746485676031296,-0.3778406982586639,-0.5544897582683521,-0.3076147346047576,8.611806286551138,-3.9766637782069103,-0.2080276618491975,-0.7001708241300485,-0.42075014667612237,0.18384029140797273,-0.3106570720170294,0.7765880496160054,-0.3638532600843785
26746,2.833,0.6732812012950411,-0.38008692318414955,-0.5542578053918648,-0.3082606688653403,7.3455373687417005,-5.254144292535214,-1.221523484783414,-0.5872661805189088,-0.2552866630811778,0.11079688762860644,-0.32041195999261796,0.7726236122508768,-0.36599325865718724
26747,2.842,0.6723353549773396,-0.3814841750957052,-0.553971177503595,-0.3091131331637732,6.992765095217072,-5.705925942669134,-1.4354084842408628,-0.44015069048882965,-0.09111136340824551,0.02912228957946134,-0.3202144882280473,0.7848404762380242,-0.3567987896308869
26748,2.850,0.6718830914784274,-0.3822147536633225,-0.5535250896149054,-0.30999188478779244,7.218447703206346,-5.531321104990029,-1.5259104485000876,-0.3064824214419603,0.03853914947599861,-0.03450364957464458,-0.31821211054073845,0.7735865649263776,-0.3664967004672568
26749,2.858,0.6717291566376759,-0.3823165527124167,-0.553092028281654,-0.31097138436874955,7.667432358645643,-4.693364052342139,-1.3020354222002275,-0.18683822630412522,0.14905289329833463,-0.0868035438711752,-0.32410599581437916,0.7745042198190156,-0.3597129858081125
26750,2.867,0.6719095006808888,-0.38200519184044385,-0.5525000372636253,-0.31201500785282343,8.227528800119403,-3.2521057298953173,-0.49693241673726285,-0.11376538601759657,0.2415925262015918,-0.13443691834908986,-0.32409065929919184,0.7778414286941132,-0.3627343068666736
26751,2.875,0.6721666678113748,-0.38146750281343456,-0.5517785764650744,-0.31339259329922203,9.02002533414054,-1.5242366450273004,0.6053642291811979,-0.12085206866566575,0.3370115947909265,-0.17438481879673481,-0.3224092197699282,0.7760347751040687,-0.3573035852897634
26752,2.883,0.6724449499129771,-0.3810589592201854,-0.5506760929643838,-0.31522642587835875,10.04535645570912,0.29846993984155046,1.7922970737515693,-0.2326182555446357,0.4188037292646933,-0.21532616611900918,-0.3277632654490212,0.7822939674948229,-0.3606757179069962
26753,2.892,0.6723876420316308,-0.38105303471344304,-0.5493295390613426,-0.3176956107557544,10.842669387127494,2.1389693777057976,2.8823427652277585,-0.4275394820226258,0.457721327879062,-0.24181026501578315,-0.3233985222271452,0.7824529698427655,-0.3547962693649739
26754,2.900,0.6719584434285524,-0.38169226881151264,-0.547612710093111,-0.3207852583568565,11.298900746442804,3.605496598290431,3.5910031491608585,-0.6791865887257182,0.46136639251920986,-0.2738828860583229,-0.3253344859872938,0.7718594125103043,-0.3581820215551136
26755,2.908,0.6709296583579469,-0.3830753286677745,-0.5456820897133772,-0.32455776537899567,11.713671427995447,4.503026359975275,3.941448683217387,-0.9575262726032864,0.43755859048504064,-0.28725704586240935,-0.3158917690915448,0.7769203824095062,-0.34264052073397694
26757,2.925,0.6671850902447221,-0.3879814855251662,-0.5413778146994097,-0.33353333266124846,11.660694607276032,4.002635767709138,3.725735937985975,-1.3213740186046505,0.33152190122640635,-0.3334992770006418,-0.3284002311017649,0.7828449285167448,-0.3313858625864411
26758,2.933,0.6643865364623777,-0.3911870452497658,-0.5392821665250713,-0.3387299376558093,10.749050259216752,2.5228469746748554,3.0975195035563825,-1.6127613201258038,0.22953913261890244,-0.38979519620625613,-0.3381810613337175,0.7885442212977316,-0.3284151900255279
26762,2.967,0.651814825570838,-0.40460619397797215,-0.5292921390989304,-0.36232732776978893,8.651621489381503,-0.06446400602537326,1.6258258141970257,-1.7966065773579543,0.28607181537471016,-0.5106102018682089,-0.3411374301014864,0.802204278710069,-0.2750696063630933
26763,2.975,0.6486855295447754,-0.40713836052289243,-0.5268672014724474,-0.368587019796597,7.54889899963802,-1.9470192984551502,0.6491938660903894,-1.7030636358677056,0.41309908991140193,-0.6030971744819843,-0.3387554790294218,0.8118028357798289,-0.26335063307582235
26766,3.000,0.6411948334275233,-0.41338283717110796,-0.5194471869700048,-0.38491354284717655,7.963711810128181,-2.180294918232791,0.4892915220373332,-1.4750012397382437,0.4314057618514339,-0.5440334200255701,-0.35399840581701286,0.813348797064452,-0.2424658762362903
26767,3.008,0.639080959919876,-0.4150018769128166,-0.5173327915547682,-0.3895070623350495,8.682779706361897,-2.0120147817290777,0.5559303980151173,-1.2241463794039715,0.3983298423670987,-0.41688442456918356,-0.3576908047509917,0.8091148864921632,-0.2365080732225505
26768,3.017,0.637307267566264,-0.41660682490438883,-0.5152489334507374,-0.39344216440054375,8.98040827749787,-1.7224443084664622,0.7434935377953032,-1.105117610850704,0.35033934975125475,-0.347284822756678,-0.3567665819959359,0.8162331857970311,-0.2261945708438547
26769,3.025,0.635601840249894,-0.4181340762109832,-0.5134304517976575,-0.3969425224752193,9.275479318294611,-1.3822479049685066,0.8564186298689394,-1.006806381725035,0.2895173499448609,-0.28413494481229945,-0.3565392552446722,0.81119424699523,-0.22288158785904663
26770,3.033,0.6340566592033213,-0.41971786182362525,-0.511689181742233,-0.39997906279465617,9.586833026150558,-1.0932958024199253,0.8951420637044836,-0.9350040992177645,0.23484818705952132,-0.2291996671568645,-0.36632099346497443,0.8103041703958697,-0.21973203996120125
26771,3.042,0.6325144272475177,-0.4212696598977722,-0.5101092850978983,-0.4027975797224594,9.705282831654467,-0.8237787915830096,0.9770156532312368,-0.8870852747712805,0.1993905552019531,-0.18858954439923498,-0.3666251599952389,0.8155098145453982,-0.20790744836694347
26772,3.050,0.6310856734945968,-0.42289744149884856,-0.5085023421244113,-0.4053566266111705,9.719269627139418,-0.6576758309326878,0.973563227734726,-0.85810011692441,0.17415988478513678,-0.15553634352744353,-0.3561425848830806,0.8121726056703006,-0.20483283890308324
26779,3.108,0.6223327470430362,-0.43459621383493224,-0.4947219885799269,-0.423176366180501,9.602559573221205,-0.21138732621969122,1.0252252818586396,-0.879867884858305,0.24444717341710206,-0.08801605190138792,-0.36216423014463067,0.8215888937066564,-0.17288017698318492
26780,3.117,0.6207793084734281,-0.43628202622830403,-0.4925972396380391,-0.4261912754413944,9.512522192945417,-0.05564357531195554,0.9288516059744933,-0.9861127933425908,0.3017655198609342,-0.06926029873473744,-0.3678293817121492,0.8186812382886157,-0.16306065197528208
26781,3.125,0.6193866501221009,-0.43817047501259093,-0.49018905296444515,-0.4290472058312273,9.563283045747982,-0.17646324073452566,0.780837931300221,-1.008673522584117,0.3017549278242742,-0.07897289763772936,-0.362236041958301,0.8312537017547256,-0.15873312061176287
26782,3.133,0.6179200368683048,-0.44002673829748823,-0.48780367065877084,-0.4319709209099338,9.554285488320858,-0.39691575724339123,0.5277443705005801,-1.017319799483613,0.30641552806752004,-0.07298348964028689,-0.36325411699598836,0.8177988646890404,-0.1505575546169505
26783,3.142,0.61650789221941,-0.4419517593149233,-0.4853667796629566,-0.4347594167689024,9.53322660371364,-0.6398195458536421,0.35326765499169405,-1.0111689778984665,0.29230154153670096,-0.06389785978781246,-0.3652551549868351,0.829778303056228,-0.1411235663916722
26784,3.150,0.6150458461261216,-0.4438454621237426,-0.48304921771424353,-0.4374737319895012,9.544062293296134,-0.9039719380050824,0.12914055177171765,-0.9909424302429501,0.26982151822456685,-0.04536946110241983,-0.37088417932199896,0.828142824107834,-0.13842117109462734
26785,3.158,0.613667099998282,-0.4458097513243796,-0.48074521525965613,-0.43994362594398445,9.473557819540057,-1.09612197617253,-0.039684813229253615,-0.9623137931688143,0.23735286081697723,-0.02459395868026692,-0.3670132716205719,0.8239354139268689,-0.13144876056384408
26786,3.167,0.6122316127025396,-0.4477953984244967,-0.47858648667479575,-0.44227447171385487,9.416557658499286,-1.2464558249604316,-0.1876242501226252,-0.9404919486938037,0.19725137104023502,0.005641450356644916,-0.37530667575188703,0.8317119114070143,-0.1329231338495878
26787,3.175,0.6108445733330484,-0.44992960977047475,-0.47643142887483103,-0.4443482272516025,9.287416806347743,-1.2352498860334398,-0.20215354795468993,-0.9265420827088215,0.15228389620016547,0.033935120632479145,-0.36684225202180054,0.8331187456371878,-0.11704316732856994
26788,3.183,0.6093528598970838,-0.4520717867662766,-0.4744541685065647,-0.4463333213327633,9.278401933672544,-1.1312133507296855,-0.25949273998763805,-0.91037322190573,0.10902923084436465,0.04615958979062307,-0.36757613867417244,0.8314170157104843,-0.11675646246328104
26789,3.192,0.6079218856016647,-0.4542825225070546,-0.4725007331379854,-0.44810872334201485,9.265260371612195,-0.9658871048840371,-0.1586302500966103,-0.8867893557168138,0.0764919231814225,0.05762708349586068,-0.3693457690374357,0.8319856962219908,-0.10481343122335995
26790,3.200,0.6063822182058202,-0.45645761096436505,-0.47075219243720223,-0.4498215514535305,9.191442666994071,-0.7693660901284696,-0.07737983188148767,-0.8647053453151363,0.03665195385124423,0.05736509914541736,-0.3637384379363256,0.8381333398515732,-0.10324222041924298
26791,3.208,0.6048733615334029,-0.458675419039988,-0.46907047419453596,-0.45135126754523036,9.1874949085839,-0.6807806343387829,-0.08876365987262973,-0.8392548332682346,0.000441508253939102,0.053860019126885976,-0.37061533620671305,0.8371317144910408,-0.09519022485295188
26792,3.217,0.6033027908867317,-0.46080535812556567,-0.4675886483898006,-0.4528189708128944,9.075880213699028,-0.5618130186851303,0.11494577861731275,-0.8049598700806095,-0.027677766915587047,0.05323520695267224,-0.36770811952665716,0.8362747633808353,-0.09075599729437854
26793,3.225,0.6018290076425337,-0.46295578766633816,-0.4661170727300331,-0.4541020355997411,9.014560868602866,-0.37086355813763433,0.01629788530297857,-0.7750422292977662,-0.046315765118221545,0.06110734301562927,-0.36282064462999564,0.8435764096210612,-0.09166210508492127
26794,3.233,0.6004262300146185,-0.46495535660565485,-0.46468652526086934,-0.4553803815659178,9.114493623878044,-0.25531121060393314,-0.04938424401370172,-0.7409257680344509,-0.023956387597021483,0.07850034822125215,-0.3596868074118368,0.8325554546354516,-0.0837757692794815
26795,3.242,0.5993071638276641,-0.4668128656704615,-0.4631436019373407,-0.4565245621145479,9.195442993028408,-0.23888892218924776,0.14482595741776072,-0.6853800431085385,0.019072192686228406,0.09646252720590662,-0.35902617315719176,0.8424643134013112,-0.06963162012481987
26796,3.250,0.5983052564973776,-0.4684464132947891,-0.4617753405380014,-0.45755033907742665,9.286607173638433,-0.3401936437535128,0.6603468438126571,-0.6078661503894254,0.02266015744362879,0.11155497694030926,-0.36735058661086273,0.8411258859533551,-0.06499710116865165
26797,3.258,0.5974657481590988,-0.46999132464943466,-0.46055125934162683,-0.45829616194094425,9.310396962517734,-0.6367205092350885,1.134319370127653,-0.5298114463354979,-0.006642259811073121,0.11238545382415663,-0.36564115344414894,0.8445425960024241,-0.06508117648668063
26800,3.283,0.5951715147843891,-0.4745057312469919,-0.45786842228689856,-0.45931654321994525,8.945601571542642,-1.3859764060377637,0.7011415078872548,-0.43415451769233426,-0.08641281773781578,0.1447995931141622,-0.35565056971800524,0.8412252624208194,-0.06127690283233554
26801,3.292,0.5944576584278151,-0.4759473059511586,-0.4573515194445889,-0.4592644575362651,8.75189844498623,-1.7438973946466951,0.15033088353811166,-0.33605321902380153,-0.16874109011958882,0.18864582064810795,-0.35714147684085934,0.8408762880396878,-0.05614608935206754
26803,3.308,0.592915804054144,-0.479446903629812,-0.45650019606201236,-0.45846383379494454,9.002466744013814,-1.656197785257705,-0.9644273165034083,-0.33667469154676427,-0.26874154018815244,0.20760225044586375,-0.35839916035943076,0.8422952945635689,-0.048863983531021185
26804,3.317,0.5918340960822899,-0.4813155643367356,-0.4561709799701934,-0.4582311286618389,9.73032973404828,-0.9603531136295229,-1.8995938349019852,-0.3972073293821333,-0.303219098964368,0.19647000869425205,-0.3444895180605442,0.8423284200527237,-0.04757310754409571
26805,3.325,0.5906462373339688,-0.48346146251525995,-0.4555692851410386,-0.45810333225366734,10.215078824868908,-0.14025094400175203,-2.418033609818875,-0.4902963937550459,-0.30103919407134605,0.18662856972332129,-0.3606303499541843,0.8388134114381449,-0.04218647724231734
26806,3.333,0.5891611108223969,-0.48582907263895586,-0.45481275519373104,-0.45826264891040247,10.411936032166885,0.9486967280424929,-2.8173003304524245,-0.6049192988631187,-0.29779022583767495,0.18638300142921538,-0.35406203538236236,0.8489519928241794,-0.037543691119395727
26807,3.342,0.5875090535511086,-0.48848589880284343,-0.4537687419828238,-0.45859412061820476,10.408665902796951,2.0611584831186156,-2.7191973911963907,-0.7154437898241273,-0.2917584634845849,0.17923224999680387,-0.34950525191162396,0.84890114784544,-0.021399755193681674
26809,3.358,0.5833743453212794,-0.4941867573819001,-0.4510137907345376,-0.4604784279600888,10.602493330333614,3.111803730559979,-1.5256567261634553,-0.8940274113952756,-0.23569205993277748,0.1254862510166953,-0.34513368116210763,0.8446274866861655,-0.016865341868965655
26810,3.367,0.581238006161761,-0.49696121692968614,-0.44930619146780537,-0.46186131616488757,10.998823856837797,2.916447990530063,0.5167702940761606,-0.9764988371094159,-0.13307640164120363,0.1062020737274052,-0.35322038111333554,0.8506503313589141,-0.010964048579999292
26812,3.383,0.5791709095085306,-0.5007476989685377,-0.44347496072360365,-0.46598579245291916,11.964122222886154,-0.016698691915501683,2.3207232676596257,-0.9292536349407765,0.3265367513879357,0.16358260390938067,-0.3469676904858345,0.8548212246587557,0.007760460300449748
26813,3.392,0.5802079924678809,-0.5002898533312851,-0.4396750337483589,-0.4687799193955867,13.50935706121218,-4.867440419685798,4.871751077676489,-0.5286089881065545,1.0258992208852138,0.21569606853144294,-0.3410744777961565,0.8490225554103049,0.0011092458908849002
26814,3.400,0.5820859062809199,-0.49845946498041127,-0.43610905534023525,-0.4717234903317945,14.433618792206639,-8.011613994574809,4.756999554037243,-0.22833739616580453,1.2520834632432054,0.07184934260180577,-0.35009115736720336,0.8511328855986184,-0.0021688504927980276
26818,3.433,0.579622097999374,-0.48849654104930146,-0.43772071697640824,-0.4835389610189977,15.23041621601036,-9.259782571886054,2.480804473365726,0.009384104169786559,0.536031146775959,-0.76889287208125,-0.36594074888642714,0.8385736723281704,-0.006060335849067607
26819,3.442,0.5758886392715681,-0.48780480902763906,-0.44136164231569547,-0.485385047297342,9.339383542397888,-2.4772435015187546,3.3491899426591156,-0.11707236084641541,-0.565128361201323,-1.1461866778871554,-0.37839367174424887,0.8336992830701889,-0.005746990553048811
26820,3.450,0.5722192858978468,-0.48794646251667084,-0.44438460374205296,-0.4868220029138418,6.332560531054807,0.6953479575710417,3.842421983780822,-0.2511933507414026,-0.6289091509540236,-0.9808496524858339,-0.3855292423802372,0.82618116440545,0.005167164395135889
26821,3.458,0.5687298995249526,-0.48855118134897974,-0.44666732760438427,-0.48821341956117026,4.882580059248614,3.023802570728283,3.799807237755239,-0.3745492839658533,-0.5701087618982623,-0.785403356481614,-0.38992371154347694,0.8352176660615342,0.005143779732757322
26822,3.467,0.5661066720311257,-0.489297472929544,-0.4478412281920542,-0.48943789513894154,4.566104199236738,4.089648503997163,3.7372189174881996,-0.4029340467279132,-0.3713173996086808,-0.5400991885112812,-0.39116452801813634,0.8240907095106292,0.00910304758541181
26823,3.475,0.5645391086271927,-0.4898579097170802,-0.4480079104253591,-0.49053413267002255,4.058473370364615,4.416278991739202,3.3130631375785993,-0.35716592694684296,-0.11982778139477791,-0.2637547489296472,-0.3960503550840895,0.8287475484421439,0.009684529764484947
26824,3.483,0.5642556182623419,-0.4901364677675486,-0.44714649267869017,-0.4913673313406982,4.144230208136597,3.7750361200789375,2.521508229087679,-0.2592199094406047,0.15117950964836904,-0.009345216875582322,-0.3950992820843199,0.8327914869812438,0.014708485672526622
26825,3.492,0.5650572095242502,-0.48983964669644886,-0.44554032282008055,-0.4922004583808762,5.218289602791966,2.2305171781466244,2.2525535291941017,-0.14091295618211325,0.4324341281200859,0.18233820557557934,-0.395832703399381,0.8254699654475249,0.014903518251177207
26826,3.500,0.5667700163512758,-0.4891100822567255,-0.44345719249576215,-0.49283749291604306,6.8818558588135295,0.25621422026925394,2.444552248952986,-0.009535406102087928,0.6182871032248183,0.30004493649987984,-0.38020696855213093,0.8232668838895782,0.014798408765162264
26827,3.508,0.5688699946475861,-0.4879696450834536,-0.4415042114218293,-0.4933017189951525,8.556184404612745,-1.7156218348990036,2.3072499552044303,0.12503838791710517,0.6700389336340907,0.341596237417718,-0.3814405766350443,0.8284648250393218,0.017337610487107188
26828,3.517,0.5710642558084223,-0.48674701539527276,-0.4399630938073565,-0.4933512286690145,10.029977884829593,-3.6223031196667534,2.00232923981595,0.24066134588143925,0.5844977817369427,0.3189991695421973,-0.389444612684112,0.8316032809794913,0.006953966466003299
26829,3.525,0.5729073531494792,-0.4855190239365076,-0.43932861627907327,-0.49298966421347423,10.991559572510127,-5.180545875733642,1.5075057742974431,0.35072932085639347,0.37844644546259404,0.25154374516860556,-0.3840471023355889,0.8348808639741104,0.0017634810798198774
26830,3.533,0.5744292268966983,-0.4844647900304005,-0.4396612644690778,-0.4919582330169033,11.610591444778025,-6.240268901719777,0.874730474756512,0.4741925572640865,0.11409773047830807,0.17300010852580183,-0.3867409890831063,0.8280871944629584,0.0033996349535241636
26831,3.542,0.5755433692830616,-0.48345979680935874,-0.44108295374712303,-0.4903695370402493,11.915274972322102,-6.679300612899243,0.5163448423494806,0.6061877592644651,-0.1466732812894641,0.10226362071682163,-0.37667951874645084,0.8353811377033995,-0.006760881078343512
26832,3.550,0.5765181312345392,-0.4825509417709449,-0.44328427526269815,-0.48812957732412954,11.36539842087077,-6.130027661010925,0.5246758545850203,0.73811882423605,-0.35608937030225435,0.0593867686082269,-0.38226217455779965,0.8283688399638266,-0.01319316831811607
26833,3.558,0.5774369105960567,-0.4816534166752016,-0.44609641711184395,-0.48536026529410325,10.514629173279461,-5.063667905472381,0.7304565886970836,0.8558060592085714,-0.5080906876712551,0.07996008419334259,-0.38444892970784056,0.8324647013836198,-0.01526932750665122
26834,3.567,0.5784736622670444,-0.4809657642514266,-0.44909782419196087,-0.48202831865715207,9.700470958364301,-3.6915606652089097,1.062905822607144,0.9252327027444494,-0.6145877743079722,0.14090980032871306,-0.37879620532966113,0.826158055406095,-0.02264067387746152
26835,3.575,0.5796019002075612,-0.48033543650546534,-0.4521815351085178,-0.4784050219424882,9.131360477542444,-2.3856838407937,1.2329981140937267,0.9672749859720591,-0.6562324657071767,0.21519630924071478,-0.38176458898154925,0.8329594279170318,-0.015024898040319873
26836,3.583,0.5809706247999659,-0.47983991182756264,-0.4550481983917049,-0.4745080918986719,8.779688281715474,-1.2743106778512328,1.4513294690119867,0.983282212440654,-0.6512815279917497,0.29271543745225137,-0.3770751857035615,0.8326877989059637,-0.02500730252060877
26837,3.592,0.5824607302081284,-0.4793811263336198,-0.45770881205805714,-0.47056973643119704,8.57417724717575,-0.3602993760914507,1.5637487662834677,0.9744565752889118,-0.61764993324185,0.36887006239768594,-0.37708114434351353,0.8344292794196526,-0.023833439739688437
26838,3.600,0.5841808150508607,-0.47901382580971313,-0.4599884833245449,-0.466571672113127,8.454206487767811,0.2212887419920902,1.6220420629999517,0.9510922225851414,-0.5606527997027146,0.43092926048910035,-0.3767965297215485,0.8312820425777441,-0.031806270255303935
26839,3.608,0.5859249968329562,-0.4786097508805515,-0.4620736594328971,-0.4627229599951232,8.475432773119831,0.3608056098138595,1.6041351054215667,0.9047525069989865,-0.5048660661657242,0.45886301613031866,-0.3728713779920609,0.833867224005977,-0.03552003075355978
26840,3.617,0.5877045590680956,-0.47824569870437017,-0.46380493505239795,-0.4590962700157623,8.638716331257335,0.2806426534925816,1.54557300647858,0.855354401337217,-0.4352311379042651,0.4526829002269794,-0.3671946454366197,0.8308514112187332,-0.04762103119851357
26841,3.625,0.589385997712788,-0.47772093402594296,-0.4654717400491436,-0.4557882338423241,8.889385090207478,-0.09425947999414991,1.4835999729975977,0.8062553690360897,-0.3760895245218299,0.4143478247599552,-0.3606016219458384,0.8403693892125678,-0.047845946523726535
26842,3.633,0.5910334264362151,-0.4771435277252602,-0.4669901947475775,-0.4526960357619461,9.18103125516952,-0.665925813945174,1.3176729223389487,0.7869397643779252,-0.3327080223465555,0.3664086926601408,-0.3627533259978649,0.8379278041327074,-0.056827235023792604
26843,3.642,0.5926025410077361,-0.47631514440202327,-0.4685580523693653,-0.44988827853621766,9.317606822221013,-1.4141257554007907,1.029192846512523,0.786335553760158,-0.28377590504994293,0.31264948853106755,-0.3663297758647809,0.8384468752535353,-0.07371160663447042
26844,3.650,0.5942616267016603,-0.4753161290555961,-0.4701176087733794,-0.44712093488305876,9.421006643789616,-2.088718251160071,0.9617068297553054,0.81568007787526,-0.2517054837611302,0.2715095564871289,-0.3624634534776455,0.8369505233595907,-0.06583588094633736
26845,3.658,0.5959301765916455,-0.4740563635226269,-0.47185471407124957,-0.44439950229482994,9.404597529145493,-2.6645700094316394,0.8628450321834064,0.8664471744259157,-0.23824201013010085,0.24436440066207873,-0.3558593198077154,0.8371283230990721,-0.06824952153389569
26846,3.667,0.5977485195046345,-0.47262230291094653,-0.47368065504608226,-0.44153312815267415,9.271397611293317,-2.9730311123471815,0.7677002332641509,0.9354344587351066,-0.23506253606124797,0.22298950855313157,-0.34823728471755155,0.8405042046592013,-0.07880452516580423
26847,3.675,0.5996297492478649,-0.4709699111183485,-0.4757361571669769,-0.43852778179052176,9.247878765870214,-3.1508830224711404,0.651923851962055,1.0145598236089526,-0.2493001143242078,0.22476268549037795,-0.35529001783392594,0.8403584525069208,-0.08420951047815194
26849,3.692,0.6038978630578389,-0.46729602698532086,-0.48014549697913794,-0.4317430901457099,9.250035125664816,-3.050875061561385,0.5207046312888501,1.129151861646894,-0.2709036948020191,0.24115582476310704,-0.3468929518366315,0.8381333398515732,-0.10315671111771647
26850,3.700,0.6061610436399746,-0.46524533935778684,-0.48254180759370396,-0.4280992493608882,9.433187614918944,-2.5618733672799783,0.49309658779235654,1.224149472681359,-0.2834848570499544,0.2837465870490988,-0.35542554368364415,0.8368468352843107,-0.1056074360752509
26851,3.708,0.6086189091817282,-0.463215224570717,-0.4848387344527465,-0.42420051943226444,9.547367126264154,-2.1622005232524826,0.47158809655325906,1.2618675407017403,-0.28541659466214225,0.31438347482783635,-0.3477983852120185,0.8414164700420691,-0.11717175506417281
26852,3.717,0.611090102062336,-0.46109893714749717,-0.48716882493026614,-0.42026562236156817,9.64663577810456,-1.7141660952836826,0.40453809994827034,1.2843505177227559,-0.27880641926694494,0.33374401197021025,-0.3390196772340734,0.8480654653028945,-0.11510958868959086
26853,3.725,0.613683347920613,-0.4589619931425754,-0.48939375352687653,-0.41622156520826475,9.66252614419728,-1.3410888985233045,0.4277813749104374,1.3023682167578479,-0.2650896190152649,0.34520993897527186,-0.33824565520288663,0.835142949553699,-0.12330303532287774
26854,3.733,0.6162502196068831,-0.4566847872132437,-0.4916479161712533,-0.4122584122694492,9.780103978696264,-1.0125350236453525,0.45457189677124654,1.3154984378786896,-0.24304561669335445,0.3368145354322281,-0.34279065043905055,0.8397711322899821,-0.14176927464858388
26855,3.742,0.618856679241565,-0.4543834256950072,-0.493826204953945,-0.4082741631704824,9.805143049790901,-0.6937343619690002,0.3456037724201027,1.3163224501212312,-0.23301908406416835,0.32425910131211333,-0.3415441162002892,0.8384117516465792,-0.14685495230673862
26856,3.750,0.6213600931911399,-0.4519691283033801,-0.49604328559471583,-0.4044460414772033,9.889437382922075,-0.38192630979681613,0.308276647435862,1.3075177354758558,-0.21534918622793298,0.299966847757133,-0.33904710136323923,0.8283449684347309,-0.1578037475432974
26857,3.758,0.6238905519645365,-0.44950961919018734,-0.49814958451591673,-0.40068525412285716,9.892007451861364,-0.16471315958942873,0.3098025137056844,1.2977999448329478,-0.19008382341548158,0.27381552770991413,-0.3307081866528713,0.8359558384691028,-0.1652950401341198
26858,3.767,0.6262855542371063,-0.44696412601503666,-0.5003117640376082,-0.39708640542722135,9.79577467035775,-0.08198057312436088,0.33012311904668973,1.282411833510044,-0.18065275635680111,0.24631631220053096,-0.3384873735684108,0.8340686058031332,-0.17187760602310637
26861,3.792,0.6332357619155391,-0.439522976600688,-0.5063290028296245,-0.38660440215403147,9.58387711623417,-0.18419953922099574,0.07382335452599173,1.2361746478295088,-0.16835469148070023,0.22250498066283628,-0.33055571774600245,0.8268366019331852,-0.19533168884300842
26863,3.808,0.637011795118691,-0.434812919631447,-0.5104261111959882,-0.3802878946411265,9.05550883377535,-0.2625011224462915,0.08688115483104401,1.1362853345569728,-0.1926476500118621,0.1683388364518299,-0.32483934330679226,0.8236087860153516,-0.21524221164491025
26864,3.817,0.6385909312989104,-0.4325651011182885,-0.5125461479699107,-0.3773400349267508,8.697172168867255,-0.13696746473590685,-0.014601943247944393,1.06704649474485,-0.22756434858082736,0.11231930449690586,-0.3260330404723514,0.83054712977683,-0.22056553237974513
26868,3.850,0.6440196624890411,-0.4240493318177426,-0.5203348314157791,-0.3669775221017495,8.580142820552574,-0.09182929336764019,-0.37888228642213106,0.9654357212940825,-0.2094757544002915,0.04563752354071688,-0.3241939077671627,0.8215471450018693,-0.2462006499061739
26869,3.858,0.6451102883892791,-0.42199525885348865,-0.5221288732185911,-0.36487553641065457,8.711052637764569,-0.4394939763435276,-0.3534111508975709,0.8569518111365638,-0.14851589890024686,0.03807700035537291,-0.3261187558766994,0.8106499110711393,-0.25177620524672634
26870,3.867,0.6462348098400373,-0.4202351833099694,-0.5236723959682854,-0.36269847388744636,8.673492808946365,-0.7106199483507543,-0.34536714186148376,0.7975854527666795,-0.16637822695751558,0.05039405674926905,-0.32517022775306176,0.8142189983703195,-0.24625090416641746
26873,3.892,0.6481178999017176,-0.4170491194722883,-0.5282732592807203,-0.35628722023572684,9.086811177891967,-1.067726688319456,-0.05032032235477932,0.6342905312006992,-0.28140938652623826,0.09599493153751229,-0.3292207258277403,0.8100216046791543,-0.26594044995432936
26874,3.900,0.6483333737432998,-0.41632548301205413,-0.5299860012244654,-0.3541917096594892,9.602447297127462,-0.5983746894341315,-0.40275087019812666,0.5526595109037356,-0.37244206619236686,0.10743070290901466,-0.32531225030990213,0.8085440501767486,-0.2663689667829326
26875,3.908,0.6486144821775358,-0.4156951696906277,-0.5314985017104706,-0.35214502990241403,9.742537437189338,-0.656168541992893,-0.30173863994211764,0.5185483513995742,-0.35385575924574153,0.0991425335144316,-0.3308596759343198,0.8142875628386438,-0.2797416641727655
26876,3.917,0.6486810496911665,-0.4151754193835128,-0.5329523956070331,-0.35043403220579933,9.79646522870574,-0.8104037819181308,0.20482835279353073,0.4340653503048256,-0.33499348676630736,0.07512408704187305,-0.3240479019382179,0.8105086282127814,-0.27496406064695766
26878,3.933,0.648112315653235,-0.41477813094481264,-0.5355604461302996,-0.34797203469423293,9.539491006158944,-0.4629020501591712,0.41274859341986897,0.27270357600779366,-0.3460459272659664,0.0018914095483673489,-0.32335121865254085,0.8031285587005381,-0.26792163540206143
26880,3.950,0.6472051542657138,-0.4132786637463555,-0.5389611568974183,-0.3461894073187645,9.114391181438089,0.3891027221103872,-0.4901267311706316,0.3323980673248039,-0.3358032252249356,-0.15645580632070796,-0.33284532656597227,0.8029828065482575,-0.27333901336680433
26893,4.058,0.666936899512984,-0.37681083593503456,-0.5772486102350429,-0.28282999835883843,11.470090029119126,-2.5181783923894767,0.7427088114760199,1.467547535356318,-0.5173346564489542,0.2092318220407893,-0.322525171025075,0.752635797979461,-0.38255774120184904
26895,4.075,0.6701930285509615,-0.3732545820781294,-0.5821984603987425,-0.2693831363480372,10.342354915188238,-0.07649239783131737,3.4818152653733003,1.5522653029475306,-0.6256884427750142,0.763969575592464,-0.32710539097670693,0.7535446719703601,-0.3940846482655621
26896,4.083,0.6723997417396246,-0.3712727187102203,-0.58356841188575,-0.2635964041847909,8.766722535638666,-1.0230558972260941,2.2406986676478304,1.4261237171864538,-0.30487711683406293,0.6812689459777329,-0.3234065680654653,0.7504173104219444,-0.40130798634686055
26898,4.100,0.6776304105599171,-0.36669958591639984,-0.5849022522901834,-0.25345176195680735,9.203661918599606,-1.499753661110935,1.2900956100827652,1.3606482679550966,-0.06537665551323778,0.5961717940173142,-0.30914806122947946,0.7457384403930287,-0.42064728964319625
