packet_counter,timestamp_s,q_w,q_x,q_y,q_z,acc_x,acc_y,acc_z,gyr_x,gyr_y,gyr_z,mag_x,mag_y,mag_z
6804,0.000,0.8739483619799994,-0.0037771854218455994,0.00023824843317869312,-0.4860040500864667,0.03621532286811689,-0.0612196838800404,10.42591589403351,0.005552110340818961,-0.0027188620820544677,-0.001756991379514204,0.60400390625,0.87060546875,-0.513671875
6805,0.008,0.8739435191288147,-0.003779953838614981,0.00025237243352424293,-0.48601272990517025,0.0692170466187711,-0.09850631990284545,10.459645490770768,0.001716423850848016,0.0016218416732144796,-0.0038180868470971087,0.598388671875,0.86279296875,-0.51171875
6806,0.017,0.8739434385857143,-0.003785986837935768,0.0002433778025821587,-0.4860128323654491,0.035610972860001075,-0.04593681981305134,10.423927920698867,0.0037448987504968105,-0.0036811495453369335,-0.0016554954752281484,0.604736328125,0.86767578125,-0.523193359375
6807,0.025,0.8739425979927455,-0.0037851576502932727,0.000247668643325451,-0.48601434819920303,0.03749889429970719,-0.07458899559428166,10.427913066846486,0.0036367178495198774,-2.8474830728511905e-05,-0.0019052263490770467,0.608154296875,0.859375,-0.510498046875
6808,0.033,0.8739420061836999,-0.003784187993018405,0.00025219004275649215,-0.48601541760424233,0.06774961924256791,-0.06865273534777037,10.455666859364243,0.0036367226929227966,-2.8476196361066933e-05,-0.001905228336527016,0.609130859375,0.86279296875,-0.516845703125
6809,0.042,0.873945691900381,-0.003793166420512048,0.00025396112893548726,-0.4860087190586353,0.034835676415729114,-0.049108909678164586,10.394933220861981,0.0018884529482238687,-0.0017771079474862292,8.585736912371895e-05,0.60888671875,0.86669921875,-0.517578125
6810,0.050,0.8739373429415257,-0.0037758878380174227,0.0002573158135295254,-0.4860238647143916,0.03860814064018336,-0.06958572018421377,10.456917052075383,0.007187367678014882,0.0016423987566290515,-0.0057625566493752865,0.609375,0.8642578125,-0.51171875
6811,0.058,0.8739409969136276,-0.0038019879435115538,0.00025941389305344777,-0.48601708972599345,0.06518020444693207,-0.0428540620458462,10.422686429430795,-0.001725998068109627,-0.0037019225514482415,0.00028904232882373185,0.600341796875,0.864990234375,-0.513916015625
6812,0.067,0.8739442104949726,-0.0037838059743963994,0.0002469962961329573,-0.486011459481664,0.037909756064318345,-0.07307280708655409,10.427922318328276,0.00922583670957333,-0.0015800083112551607,-7.050171347284505e-05,0.608154296875,0.85986328125,-0.51806640625
6813,0.075,0.8739471495259,-0.0037858127048484725,0.0002620927024563536,-0.4860061509540114,0.0389167190870657,-0.06854057459631453,10.456922809473593,0.0017801666685946748,0.0018755869066428258,-0.00016415349429186216,0.607421875,0.863525390625,-0.51806640625
6814,0.083,0.8739507699449302,-0.003791469525666323,0.000253524406532562,-0.48599960102542805,0.03694997615454295,-0.07640776532149746,10.398930110169225,0.0037770169065106836,-0.00355412138393928,0.00017192049461709806,0.602783203125,0.85546875,-0.515625
6815,0.092,0.873950363242731,-0.003790488267467906,0.00025784891172704453,-0.48600033775763146,0.03639750618060529,-0.04305850518503632,10.423937490523961,0.0036366980529064685,-2.8578062683688616e-05,-0.0019053459571344287,0.605712890625,0.861083984375,-0.521728515625
6816,0.100,0.8739500273333407,-0.0037930198456849105,0.00025561180193611716,-0.4860009232368907,0.06743703846962333,-0.07013944158181601,10.426682072269909,0.003690889825681596,-0.0018548992482751697,-0.0017802358672502146,0.603759765625,0.864501953125,-0.521728515625
6817,0.108,0.8739530214816432,-0.0037883601396136862,0.0002498906649457105,-0.4859955782980071,0.03938399804279155,-0.06725204042439621,10.456929427204317,0.005557230647549007,-0.0016784590544798711,7.709599713390976e-06,0.603515625,0.868896484375,-0.51416015625
6818,0.117,0.8739527359186343,-0.0037976712421383817,0.0002511889466575004,-0.48599601847914703,0.0395405814910875,-0.06692873301666544,10.456930909787992,0.0018565445502535974,-0.0019042285973471717,-0.0017410654912763935,0.609130859375,0.86376953125,-0.5146484375
6819,0.125,0.8739517300514902,-0.0037933601074546853,0.00026248732028125654,-0.48599785499476134,0.03954627343498359,-0.06669113054431523,10.456932406589694,0.003582455322614175,0.0017976955942949182,-0.002030629156594625,0.6025390625,0.86376953125,-0.51611328125
6820,0.133,0.8739554558104288,-0.0037821781132763486,0.00023655399896552044,-0.4859912555078647,0.009446917455556257,-0.07176199001477551,10.42918944841626,0.009334444173267389,-0.005232378709566234,0.00017985578499615866,0.61474609375,0.856201171875,-0.51318359375
6821,0.142,0.8739551276806041,-0.003781208107693589,0.00024105922879526362,-0.4859918509157053,0.038903891998848264,-0.06962489149963418,10.427942245559146,0.0036366612896987305,-2.8696804998685493e-05,-0.0019054910800096016,0.607177734375,0.858642578125,-0.517333984375
6822,0.150,0.873954535384393,-0.0037802392446954877,0.0002455799685248938,-0.48599292130933497,0.06813530573976234,-0.06773445318480463,10.426693433353806,0.003636666150037764,-2.8698175545850912e-05,-0.0019054930724086798,0.610595703125,0.8671875,-0.513671875
6823,0.158,0.8739542635329534,-0.003789589379655007,0.0002468616340982477,-0.4859933367076557,0.03899252966782383,-0.06906897757445271,10.427945611200252,0.001856582615524092,-0.0019043364721925342,-0.0017409398793750545,0.607666015625,0.85595703125,-0.52197265625
6824,0.167,0.8739536206116093,-0.003781840875730432,0.0002478469917703479,-0.48599455271774306,0.03805290843609002,-0.07281477798378842,10.39895191207975,0.0054710149491727705,2.065786546337786e-05,-0.0019447496032129422,0.609375,0.858642578125,-0.519287109375
6825,0.175,0.8739531428895294,-0.0037807076372639264,0.00025206207668276637,-0.48599541844341,0.039076883023787264,-0.06835364153901043,10.42795000908365,0.0036366662256169698,-2.8704619642513767e-05,-0.001905526721196615,0.61376953125,0.8603515625,-0.520263671875
6826,0.183,0.8739565579815118,-0.0037896420138571756,0.0002537876938858243,-0.4859892066356227,0.03742308302437958,-0.03914279451620787,10.423949298133097,0.0018886688319613495,-0.0017769223539081686,8.620097745332002e-05,0.604736328125,0.864013671875,-0.521728515625
6827,0.192,0.8739486063403243,-0.0037928460540652986,0.00025044579368497605,-0.4860034825713899,0.03830322566653403,-0.0719400112209416,10.398957081149899,0.003626854727947303,-0.002109954053744191,-0.00543425782477082,0.609375,0.862060546875,-0.513427734375
6828,0.200,0.8739554141828126,-0.003791123299685401,0.00025582294302474424,-0.48599125090817924,0.03838594548517765,-0.0716219227518285,10.39895897167821,0.0037007902553586785,0.00022632184320706784,0.0017485498307629956,0.60693359375,0.8681640625,-0.515625
6829,0.208,0.8739546391338933,-0.0037767082502378514,0.0002533101424817351,-0.48599275822290916,0.03939632505499581,-0.06707550308622438,10.42795710802477,0.007305382179312655,7.006739641851263e-05,-0.0019841092877605155,0.6083984375,0.861572265625,-0.514404296875
6830,0.217,0.873950860502567,-0.0037831166977656174,0.0002438852556061049,-0.4859995082043354,0.04231851351484913,-0.09149478261490797,10.460960301802219,0.0037133123987966193,-0.003808912793307551,-0.003481549058936923,0.6044921875,0.858642578125,-0.513427734375
6831,0.225,0.8739545404217562,-0.0037920978669916095,0.0002455811413118064,-0.4859928198645195,0.06800731543332832,-0.06884618295893516,10.397711853727946,0.0018887532145364456,-0.0017768478608513403,8.628657122537753e-05,0.609130859375,0.854736328125,-0.519287109375
6832,0.233,0.8739579049385537,-0.0037942519514147606,0.0002437717782994129,-0.4859867535467026,0.038931606675200306,-0.0701802805141145,10.398966772495646,0.003723122530177136,-0.0017274132597027631,4.6978052676778605e-05,0.6083984375,0.86328125,-0.51318359375
6833,0.242,0.8739611723867218,-0.0037860819132459426,0.00024509213050475623,-0.4859809406489315,0.01182205766065504,-0.06321098601161128,10.458212203311394,0.00550310713371446,0.0001483008945445469,-0.00011796746722728062,0.60791015625,0.866943359375,-0.51708984375
6834,0.250,0.8739609382888117,-0.0038021731628159173,0.00024992402141585753,-0.4859812335497774,0.04010374565015039,-0.06546679123594011,10.42796463352025,2.2272924704544808e-05,-0.0019539736506044366,-0.001701393995395961,0.6044921875,0.865478515625,-0.514404296875
6835,0.258,0.8739642007137697,-0.0037876214025633678,0.00023070335229749377,-0.485975489681132,0.03931150473903927,-0.06913744383477631,10.398972331308023,0.009280674443419616,-0.0034053308975505745,5.46282112387212e-05,0.6064453125,0.866455078125,-0.519287109375
6836,0.267,0.8739636079425577,-0.003786653181230263,0.00023522356287757464,-0.48597656108045784,0.012995484031424757,-0.09504730895686256,10.433236997704835,0.00363659316049315,-2.888044673218112e-05,-0.0019057880041830713,0.60302734375,0.86376953125,-0.528564453125
6837,0.275,0.8739591069382259,-0.0037963176485626637,0.00023566064592268866,-0.48598457983367116,0.041603890703762456,-0.06018513951711377,10.456963891613812,0.0018244903581960926,-0.002032404433008302,-0.003567711210473402,0.611572265625,0.86376953125,-0.5205078125
6838,0.283,0.8739659647699314,-0.003801373882129425,0.000244574149784385,-0.48597220307735367,0.040658881183838855,-0.06410185466650056,10.42797096354306,0.0018665440679973755,0.00017729144159418903,0.0017876626417346981,0.59912109375,0.868408203125,-0.513671875
6839,0.292,0.8739690694581742,-0.0038036432142693234,0.00024264870886379897,-0.48596660281372855,0.013235264375085716,-0.094406159876257,10.433242517589829,0.0037231953270733097,-0.0017273334471936592,4.701410604907932e-05,0.61376953125,0.861328125,-0.521240234375
6840,0.300,0.8739684256695415,-0.0037958950983419406,0.00024363382091524934,-0.4859678206997528,0.04080040344736727,-0.06345948425907165,10.42797434051861,0.005470959707921786,2.0549643710558157e-05,-0.001945248238719752,0.60888671875,0.87255859375,-0.517578125
6841,0.308,0.8739713204546421,-0.003791287654922474,0.00023821025068909346,-0.48596265331459715,0.011645640718225641,-0.06455855921892387,10.429234300707105,0.005557603711936869,-0.001677825520964847,7.645987283220928e-06,0.60888671875,0.86572265625,-0.517822265625
6842,0.317,0.873978435501538,-0.0037998431962110823,0.000240365227286214,-0.4859497892730545,0.04101696469827639,-0.06265534675481246,10.427978352816558,0.0019210341327722817,-0.0016488492775400215,0.0019135183686459206,0.605224609375,0.862548828125,-0.514892578125
6843,0.325,0.8739700864953124,-0.0037962041331998206,0.00025071363314367113,-0.4859648278303994,0.04102261807599522,-0.06241838814604502,10.42797975188069,0.0035177134151900048,0.0015413392665635291,-0.0056858898435175175,0.60986328125,0.862548828125,-0.517333984375
6844,0.333,0.8739739155419285,-0.0037985758247844987,0.0002318522574459918,-0.4859579323547915,0.04292702290214286,-0.09098624904493507,10.432000049228497,0.005666624084581048,-0.0053302622951527994,0.00025954852142651505,0.593505859375,0.86328125,-0.51611328125
6845,0.342,0.8739699164770981,-0.0038083678845566528,0.00023250721971315028,-0.4859650474750864,0.03945257892029874,-0.0698615301166286,10.36999713625032,0.001824421799812562,-0.0020327973353975954,-0.0035675541420311626,0.60498046875,0.858642578125,-0.520751953125
6846,0.350,0.8739695300214971,-0.003804119152212787,0.00022673358565897806,-0.4859657784899681,0.04167759637574529,-0.06137206137274861,10.427983365736294,0.005525447147082209,-0.0018057066526421793,-0.0018194843393599253,0.614501953125,0.86767578125,-0.513916015625
6847,0.358,0.8739725562371703,-0.0038027746655486124,0.00023161901383783736,-0.48596034426868867,0.04349209541040252,-0.08993960930092457,10.432006783386456,0.0036687825210734502,9.90811041810243e-05,-7.899339447013259e-05,0.603271484375,0.866455078125,-0.5224609375
6848,0.367,0.8739722207858166,-0.003805306202690003,0.00022937983971120485,-0.4859609288042623,0.0428581629231121,-0.05656461500089496,10.456979037633488,0.0036910704378438058,-0.0018552769280272574,-0.001779963165912831,0.614501953125,0.87255859375,-0.5146484375
6849,0.375,0.8739676478538642,-0.003808327739802082,0.00022664579269993183,-0.48596913047671547,0.04199715884949074,-0.060331840826196255,10.427988153298799,0.0036588135837864527,-0.0019834138482727644,-0.003606993128484597,0.614501953125,0.867431640625,-0.519775390625
6850,0.383,0.8739630964476779,-0.0038042398679245496,0.00023749402898668888,-0.48597734247925617,0.013498059395215263,-0.09465575492528476,10.404283035150915,0.003549662412661884,0.0016690754331752013,-0.003859227259204484,0.602294921875,0.867919921875,-0.52734375
6851,0.392,0.8739661434845538,-0.003816657867826012,0.00023215947786095958,-0.4859717679736479,0.04035541343595286,-0.03081123019798918,10.42396631472691,0.0019436132897808949,-0.0036028789246882937,0.0002127667659365398,0.611083984375,0.86572265625,-0.518798828125
6852,0.400,0.8739655498905592,-0.0038156902532167076,0.00023667918131105688,-0.4859728409030168,0.0422558483770412,-0.059535249981338266,10.427991686433954,0.003636508772607775,-2.8996747749232865e-05,-0.001906117506229978,0.607177734375,0.85888671875,-0.51806640625
6853,0.408,0.8739687129947101,-0.0037974718126198943,0.000224137984937179,-0.485967301036156,0.04406890886571688,-0.08794243703552712,10.432021392330943,0.009226626157938128,-0.0015781502508567934,-7.156360243761552e-05,0.60986328125,0.859619140625,-0.517333984375
6854,0.417,0.8739647288633686,-0.003807162758418167,0.0002250021237009812,-0.48597438984842983,0.04248397074980258,-0.058495187115166804,10.427996645414897,0.0018244391517897116,-0.002033230131455781,-0.0035673452141268542,0.609619140625,0.863525390625,-0.52392578125
6855,0.425,0.8739639977695826,-0.0037993271162537626,0.00022577438979621173,-0.48597576559124595,0.04257276076487882,-0.05817722702638414,10.427998062709667,0.005470903961224934,2.0607692447006568e-05,-0.0019457602683740484,0.608642578125,0.857421875,-0.514892578125
6856,0.433,0.8739675694917953,-0.003798197167244891,0.0002136725971776243,-0.4859693565636668,0.07266438177712436,-0.08917290026165273,10.401776304978855,0.0056125622745860915,-0.0035034946935723,0.00013386457883228376,0.604248046875,0.86181640625,-0.51513671875
6857,0.442,0.8739712356692986,-0.0038003691102727745,0.0002117956708693465,-0.48596274709065795,0.04469603105126549,-0.08625541880540769,10.432032807366149,0.0037234904180619053,-0.0017269222468401884,4.7123946292672425e-05,0.603759765625,0.86279296875,-0.51123046875
6858,0.450,0.873978041475781,-0.003798642928573926,0.0002171771998611782,-0.4859505182260046,0.01378975886811302,-0.05855125215722498,10.42926714148298,0.00370116617147051,0.0002277362358347393,0.0017477531018025784,0.605224609375,0.85986328125,-0.511474609375
6859,0.458,0.8739780182446268,-0.003801316421951702,0.00021499703736968303,-0.4859505400706224,0.04308719073203408,-0.056646228425213684,10.428004378417127,0.0036911411709367676,-0.0018554121515946126,-0.0017798551452009909,0.60546875,0.8623046875,-0.525390625
6860,0.467,0.8739774244616223,-0.0038003494026683806,0.0002195161601687236,-0.48595161352597915,0.0438822458135386,-0.08939217136613686,10.403049546760387,0.0036364695813590935,-2.919065596216639e-05,-0.0019062894661110224,0.60888671875,0.863037109375,-0.515625
6861,0.475,0.8739693882371453,-0.003813670870233457,0.00022999201471137168,-0.4859659570819303,0.043189694310338894,-0.05617206458473781,10.428006518806315,-9.706465272460168e-05,-0.00038555439748081104,-0.0054810080121317495,0.608154296875,0.861083984375,-0.514404296875
6862,0.483,0.8739692092066301,-0.0038061389688840174,0.00021392507057036987,-0.4859663454406605,0.04439635559866492,-0.05175176888756541,10.456997548125134,0.007414775721510818,-0.0035821400286028177,-0.0017326781085312609,0.609130859375,0.864013671875,-0.511962890625
6863,0.492,0.8739686912104777,-0.0037984734060366185,0.00021498919086848558,-0.48596733651890267,0.017786760189250284,-0.11480814167039365,10.437349379945143,0.005470874058605917,2.0571116833839875e-05,-0.0019460341871934909,0.602783203125,0.870849609375,-0.51953125
6864,0.500,0.8739683560485514,-0.003801004544121641,0.00021274931812998316,-0.4859679204720984,0.042566854698680316,-0.058997229685885,10.399021986091192,0.003691228646707933,-0.0018553726371565357,-0.001779802187443493,0.6044921875,0.8544921875,-0.5146484375
6865,0.508,0.8739761885873938,-0.0038133391648864376,0.0001909155815032977,-0.4859537465416918,0.01476153109452893,-0.05614946168814899,10.429279020266604,0.003920361691028148,-0.0070767147155914685,0.0022539300669225525,0.610595703125,0.85595703125,-0.520751953125
6866,0.517,0.8739711183398006,-0.0038022580611067024,0.00021528018950307538,-0.4859629417928443,0.04406466752296198,-0.054242720590415634,10.428013073650366,0.0034396470527730846,0.0053207224116667,-0.004113316591391645,0.6015625,0.85693359375,-0.515869140625
6867,0.525,0.8739670926492735,-0.003794793297889571,0.00021558979833962238,-0.4859702398614973,0.04733721809582511,-0.11178380486448468,10.43609754775457,0.00543847524805332,-0.00010814714801862387,-0.003773121215258629,0.6201171875,0.860107421875,-0.516357421875
6868,0.533,0.8739709238284357,-0.003797159184571358,0.00019672959138827657,-0.48596333933956976,0.04304279815235509,-0.05748032997218135,10.399028523557014,0.0056677612226860175,-0.005329268467055146,0.000260888074129827,0.60986328125,0.863037109375,-0.52294921875
6869,0.542,0.8739707958843648,-0.003803068181354055,0.00018766779813473642,-0.485963526814982,0.04518303111183632,-0.08603594263686166,10.403072277143863,0.0037460800876006743,-0.003681636998351694,-0.0016530640400793059,0.599609375,0.866455078125,-0.512939453125
6870,0.550,0.8739622840055702,-0.0037958663877527502,0.00020484061801075574,-0.48597888387712385,0.0483049348029096,-0.07339191954001058,10.49004079168999,0.0034617817943626574,0.0033655190979788334,-0.005814022528195063,0.61181640625,0.861083984375,-0.50927734375
6871,0.558,0.8739617500943466,-0.0037882988160197893,0.00020594506131759032,-0.4859799026202003,0.014794580895981187,-0.09103458381905455,10.37535869706963,0.0054708617577631105,2.0647890272079175e-05,-0.0019462767506065034,0.601806640625,0.868896484375,-0.51806640625
6872,0.567,0.8739574043832068,-0.0037809313706792763,0.00020649798908291733,-0.48598777478483846,0.04609576639529937,-0.08074698130499702,10.432070807845653,0.005438443080114936,-0.00010824292017811004,-0.003773261751054235,0.604248046875,0.86572265625,-0.51708984375
6873,0.575,0.8739568192499326,-0.003790398053823173,0.00020763111861135417,-0.48598875281065224,0.07437653441375865,-0.0829509978227581,10.401815680809019,0.0018569389433194512,-0.0019052465599806146,-0.0017398904745193336,0.60107421875,0.8603515625,-0.520263671875
6874,0.583,0.8739564843064757,-0.0037929286869129615,0.00020539102182789553,-0.4859893363492346,0.04459664719979243,-0.051224098954465294,10.42802607631145,0.0036913780576083187,-0.0018553632866259804,-0.0017796769434634608,0.610595703125,0.86181640625,-0.51904296875
6875,0.592,0.8739521245808557,-0.0037855317042820324,0.0002056919182511889,-0.48599723392336247,0.0446831473677506,-0.05082637505987285,10.428027652502793,0.005438411144561569,-0.00010825762578931993,-0.0037733549554038646,0.605712890625,0.861572265625,-0.513427734375
6876,0.600,0.8739549189268501,-0.003773904769967041,0.00021386977872415343,-0.48599229580937586,0.04635713149719855,-0.07931505669924752,10.432080634998888,0.005448329885589347,0.0019759517546830566,-0.0002463523271909022,0.614013671875,0.86865234375,-0.52392578125
6877,0.608,0.8739501058215353,-0.0037630593124748546,0.00022109277838499393,-0.48600103193009914,0.2222741127255609,-0.10236471196125412,10.399533542182251,0.005383475199163157,0.001717833782891634,-0.003900298682313865,0.60302734375,0.86181640625,-0.52294921875
6878,0.617,0.8741806520476871,-0.0028909746930084017,0.000855566219323421,-0.4855914927768499,3.027413714712186,-0.2576750105824432,10.798528631795413,0.1130605579089066,0.23332679277003807,0.1117942609851295,0.611083984375,0.864013671875,-0.5185546875
6879,0.625,0.8740577250519824,-0.0017132540622305948,0.0027539360487306777,-0.4858112533419859,2.124446059418277,0.8377882397998369,11.123948607214984,0.02973813847056972,0.5347056550721454,-0.06039078175944899,0.620361328125,0.867919921875,-0.514892578125
6880,0.633,0.8737965322019992,-0.0007570168324844281,0.00446874669529434,-0.4862705805827137,-2.028171249074741,-0.20760786704678752,10.47712131368079,0.004813079191500406,0.47048559296596,-0.1270875644590585,0.618408203125,0.867919921875,-0.508056640625
6881,0.642,0.8734338622854929,0.00027620567031884786,0.006256337456557568,-0.48690252634906694,-3.581921840835614,-0.023882725398213362,10.329186948646731,0.012674615656082439,0.4948556093314516,-0.17487633117151713,0.617919921875,0.852294921875,-0.5078125
6882,0.650,0.8730199932560435,0.0011689734770166643,0.007677157765703565,-0.4876225857411328,-1.0314324617853423,-0.1822318708457106,10.199560636767274,0.02618323012528881,0.40164708762338175,-0.19967500329977297,0.61962890625,0.8662109375,-0.514892578125
6883,0.658,0.8727725454126373,0.002115835122893306,0.00923671293805765,-0.488035132290472,-2.912936034986562,-0.46857820427459773,10.857738729041458,0.02058173741592458,0.4368267125730613,-0.1158240523409098,0.616943359375,0.864501953125,-0.508056640625
6884,0.667,0.8723576579563074,0.0036273330766438345,0.011761338678813977,-0.48871323899831015,-2.538982297538943,-0.14582234652795478,11.05909565314671,0.026576183313863383,0.7053467467609248,-0.1901826979517947,0.62646484375,0.8701171875,-0.50390625
6885,0.675,0.8718709023337322,0.005315236664592768,0.014710440306348008,-0.489485935312708,-0.763085727618689,-0.28848515597394614,10.078979148882837,0.014023384567474957,0.8149714772772941,-0.21823655984088774,0.62158203125,0.861328125,-0.501220703125
6886,0.683,0.8714582589475233,0.006603342700915537,0.017017094819960457,-0.4901298983547262,-0.2019169353320601,-0.3700586700456597,10.057759122310202,0.005317986920960671,0.6335328105455457,-0.1832357518433393,0.62255859375,0.8603515625,-0.49560546875
6887,0.692,0.8707916284746859,0.00784154340768922,0.019013706985318,-0.4912218734157377,0.3560755565794656,-0.6691336254463425,10.371087141781787,0.0334517954866667,0.5631129141513715,-0.306797566406625,0.61181640625,0.865966796875,-0.489501953125
6888,0.700,0.8698488070330676,0.009015911842619254,0.020677730939645284,-0.4928023921208004,0.6726660562810752,-1.196180592701233,10.21750952421414,0.06220198234016794,0.4864520596453264,-0.44085421311233336,0.60791015625,0.865478515625,-0.491943359375
6889,0.708,0.8686696344667989,0.010365609162283315,0.021536803923408544,-0.49481490112847004,0.5698007436300252,-1.782539925403242,10.011253134836501,0.1966201952529642,0.33951316054476677,-0.5563883612007247,0.604248046875,0.8662109375,-0.493896484375
6890,0.717,0.8669704509895119,0.012279421977762642,0.021282466709990823,-0.4977534625873262,0.6239828399831578,-1.8736964951634654,10.362410738571196,0.4525753518677919,0.17463351036205937,-0.8055141459542584,0.60302734375,0.87451171875,-0.48681640625
6891,0.725,0.864940337919003,0.014903897619933083,0.019896618392733007,-0.5012586261131369,0.014055906851530948,-1.5082120222507862,10.400389232931914,0.739469963067841,0.024292721640121414,-0.9558879871846059,0.588623046875,0.873779296875,-0.49609375
6892,0.733,0.8628048898137097,0.02101576341605722,0.015412731122236296,-0.5048648408445038,-0.5663706333494524,-0.9935624932635282,10.841536414198767,1.8369994976809632,-0.19931605486163695,-0.9619015792171566,0.58349609375,0.869873046875,-0.503173828125
6893,0.742,0.8611049550971516,0.025899263261676925,0.012290921062729691,-0.507618378045028,0.22112516538480864,1.7011306056170756,11.63773351575851,1.412444060112611,-0.06312753058752224,-0.743457789193192,0.58349609375,0.86474609375,-0.5234375
6894,0.750,0.8603999181642471,0.02778797816320763,0.010626031843812006,-0.5087503282945499,0.4765842944856183,1.0844224366094541,10.86766299981,0.6048458051978695,-0.12002279017643876,-0.30552468127124477,0.5673828125,0.868408203125,-0.51611328125
6895,0.758,0.8600147009581064,0.0303191071025761,0.009622761961989171,-0.509276809144756,0.9292570963437752,-0.053672646904169535,10.325803910306908,0.6532116064216511,0.09859199601757786,-0.14362602529697935,0.567626953125,0.86767578125,-0.5234375
6896,0.767,0.8598427953187879,0.03498611779236695,0.009791065927622059,-0.5092646403670613,0.3301725573362045,0.8965010622544882,10.826120870630053,0.9479036316081869,0.6045675316168077,-0.010562187493541743,0.5712890625,0.862060546875,-0.518310546875
6897,0.775,0.8597915262022287,0.04095008377399185,0.010462050383963804,-0.5088930807266974,-1.0055984678625076,-0.1645478786993913,11.82822188684773,1.1529494461906702,0.8697588623224507,0.07824425526421841,0.5771484375,0.85546875,-0.52734375
6898,0.783,0.8592616015591998,0.04628566880537196,0.011425089951847774,-0.5093099294817944,-1.6131102710403582,-0.8435000135976316,13.021999441984844,0.9935984448610908,0.8465285042523146,-0.1484231428197996,0.582763671875,0.847900390625,-0.535400390625
6899,0.792,0.8583332112623385,0.04747137768929221,0.013344252973655284,-0.5107176300627749,-1.9033933473688198,-0.42798472790937486,14.457317045089379,0.028272577371365137,0.5266536342541045,-0.4232136053181099,0.583740234375,0.858154296875,-0.523193359375
6900,0.800,0.8572952363433699,0.042115312469176956,0.01662602582812411,-0.5128301409470306,-1.9696812083557547,-0.8463907952486278,13.827921474270843,-1.4830621321205268,-0.002294465525998327,-0.6185678089436134,0.569580078125,0.858154296875,-0.518798828125
6901,0.808,0.8564010465494436,0.03716048159888794,0.020525054584047964,-0.5145629876027606,-1.1846693015168432,0.5139119268705502,9.203675669867874,-1.4791695268329488,0.1773556477385261,-0.5272331709470601,0.564697265625,0.875244140625,-0.50537109375
6902,0.817,0.8564540783196092,0.03755649385314916,0.024138438701349622,-0.5142890794837357,-0.9322279374808837,1.482673058287359,10.032063095378595,-0.36270230140522,0.7926795505104532,0.030956039915251848,0.556640625,0.869140625,-0.494140625
6903,0.825,0.8574646791672766,0.041892429711405624,0.026215206786178315,-0.5121641448272147,-2.76347328949123,0.8060763923891315,15.014575312018541,0.6175650029638402,0.9743286226805861,0.5663952753189528,0.56689453125,0.87158203125,-0.49951171875
6904,0.833,0.8592827698773862,0.045943196190646865,0.028065536538248358,-0.5086596797215746,-3.7396152189157443,1.1434718126078713,18.474236704050565,0.5698082197492422,0.9014101827190902,0.9499399055003636,0.565185546875,0.85302734375,-0.4912109375
6905,0.842,0.8623088953486284,0.05095650310380415,0.030465682345514604,-0.5028902922042566,-4.387649931080886,2.83943568344851,19.334231926764843,0.6726976483983305,1.1491372835252374,1.5649225320555686,0.582763671875,0.835205078125,-0.49609375
6906,0.850,0.8661727943932565,0.05652123951167883,0.034178992873350286,-0.4953603094548495,-5.745465680953874,1.460003591581023,18.781812603957015,0.6051337262990386,1.5028882351088793,2.0184083054038138,0.591064453125,0.823486328125,-0.495361328125
6907,0.858,0.8698751441544872,0.06185613829408148,0.041212662093863574,-0.48763979351637327,-3.81075758198003,0.6617098240578054,17.116258830338605,0.16329184320081694,2.169676533830851,1.991862037992234,0.609130859375,0.80810546875,-0.479248046875
6908,0.867,0.8731041316137734,0.06825525828540255,0.04909474178101447,-0.48022921756678666,-2.5298702101346375,-0.698873099091349,18.989975414817852,0.29621196914190157,2.471507820413741,1.8697233526470232,0.62255859375,0.7958984375,-0.467041015625
6909,0.875,0.8758565407744924,0.0753584341694176,0.056650085450990435,-0.47327285385966206,-2.792286610811421,-0.1263202836693195,21.087481212975348,0.4946477115272662,2.4822823164445387,1.7332229750013781,0.630615234375,0.76708984375,-0.443115234375
6910,0.883,0.8783300541270818,0.08399725366466897,0.06385184908553411,-0.46626571690643187,-4.329107056125988,1.6378035820722547,23.43386503579583,0.8618941203380498,2.5871841931316246,1.7395334749559936,0.645263671875,0.74365234375,-0.43017578125
6911,0.892,0.8808200916261474,0.09379658130084462,0.07058467804206199,-0.4586676037717049,-5.457882040846415,2.9583281575933147,25.212132589933155,1.1497252394136,2.629793135426796,1.8931767974848719,0.654541015625,0.735107421875,-0.419921875
6912,0.900,0.8833058145316727,0.10329422198804586,0.07667133412946517,-0.45080222741378556,-6.644912590725277,1.9705036316945852,25.80389071786779,1.1525505840720758,2.466141598006907,1.958667617127076,0.663818359375,0.702392578125,-0.396240234375
6913,0.908,0.8838984259418748,0.11282766563040679,0.08188191865685214,-0.44641778849295666,-7.678289866098664,1.7505075934153844,25.385696905045037,1.1905588481346907,2.322126757043843,1.751780530743609,0.675048828125,0.694091796875,-0.37353515625
6914,0.917,0.8846470176553018,0.1270461414980375,0.08716431767952222,-0.4400696692655656,-10.545456459174241,1.9459439023144698,19.380603807006516,2.3093309332473924,2.800179361964051,1.5616976643858085,0.681884765625,0.67138671875,-0.342529296875
6915,0.925,0.8825126874980163,0.14645950098096225,0.09362695566169435,-0.43698394038106136,-12.724484988422262,2.9063245063816745,25.431734223859777,3.296736133068588,3.646305391602137,1.1356137992662112,0.691162109375,0.641845703125,-0.323974609375
6916,0.933,0.8823828203656207,0.15846160031070053,0.10074106765781994,-0.43144144079787655,-8.288154317246212,2.3927872647208575,23.989873897333098,1.6800270015257253,2.9622835870237156,1.1783565041726975,0.70654296875,0.628662109375,-0.291259765625
6917,0.942,0.8823563763956684,0.17167934712152028,0.10240460845860644,-0.42601258546230036,-7.748922277017376,2.0232318711631403,22.902178058531398,2.437844377938237,1.9671344553613666,1.5833345583194376,0.71826171875,0.616943359375,-0.272216796875
6918,0.950,0.8835422180959881,0.1831036362334568,0.10088230574214599,-0.41910496015706583,-7.441937671817687,1.835645305011642,23.272059057569695,2.3603184080252366,1.1000957763448458,1.9259829856749136,0.71044921875,0.5966796875,-0.251220703125
6919,0.958,0.8855978095518289,0.19373576396332629,0.09482530582659887,-0.4113284999285136,-8.253609376358224,1.8346650134245726,21.476123705973396,2.5894226649233207,0.07572986227405282,2.3778323123097413,0.71826171875,0.577392578125,-0.255126953125
6920,0.967,0.8883196212863893,0.2042302621739638,0.08419152230857702,-0.4026040710441518,-9.272299936865593,1.897607332524197,20.637820353165964,2.9592980415689447,-0.8815595064193006,2.8548138022442067,0.72314453125,0.55908203125,-0.25830078125
6921,0.975,0.891296313774409,0.21530494088406504,0.0699947897164945,-0.392855435110173,-9.408737223204147,1.0793515463224947,18.871920517421884,3.394407974218231,-1.5403434429488876,3.2842889147725542,0.7158203125,0.539306640625,-0.264404296875
6922,0.983,0.8941209370797705,0.22712599324750035,0.05265844931373277,-0.3823462053987232,-8.869480343251517,-0.26393847058249253,16.90628776478271,3.845036321536387,-2.0995753981919174,3.6074845193138874,0.7138671875,0.511474609375,-0.290771484375
6923,0.992,0.8966696495534974,0.23927528465581627,0.03195552061627227,-0.3710926062651068,-9.000006053033408,-1.0069856162769033,15.048725045312096,4.230501608619825,-2.7482497745432752,3.929749427319643,0.713134765625,0.47509765625,-0.3154296875
6924,1.000,0.8987980137042796,0.2513676763215211,0.007864570610439782,-0.35904675237505473,-8.923510078830061,-1.6660054859907478,13.589424837798576,4.537901187110863,-3.4335835967802093,4.2570282827409525,0.717529296875,0.44091796875,-0.3486328125
6925,1.008,0.900096466856653,0.26345394372137415,-0.018919666163125598,-0.3464973537014401,-8.750194265977049,-3.1026418744152378,11.690368004590601,4.818360412347332,-3.9837259206312896,4.456824389915795,0.709716796875,0.405517578125,-0.3779296875
6926,1.017,0.9000824184596762,0.27573938732212944,-0.0474835425427158,-0.3340130887354437,-8.096045763612285,-4.232285786685152,9.540695501804489,5.091783158979573,-4.3614125488603275,4.445217249462376,0.702392578125,0.36474609375,-0.41748046875
6927,1.025,0.8984519473071344,0.28859591125572265,-0.07734546220995575,-0.3217361929625353,-7.758717670872415,-5.098454229076971,7.623863606854745,5.424481089308308,-4.628852682266891,4.35039586742767,0.697021484375,0.32177734375,-0.454345703125
6928,1.033,0.8951613834331327,0.3020052751996814,-0.10785817797813066,-0.3095892840601606,-7.281121035884464,-5.46529543376586,5.958633295692367,5.706095276696352,-4.765833164210451,4.228897913570173,0.680908203125,0.27587890625,-0.499755859375
6929,1.042,0.8903122499475425,0.3159481045630451,-0.13829233457267207,-0.2973148550187224,-6.765204894120436,-6.112505600349321,3.839544504908517,5.93183173757576,-4.7411461142264315,4.1211337559477785,0.663330078125,0.22216796875,-0.528564453125
6930,1.050,0.8839108740411323,0.3306193573503373,-0.1683112118304339,-0.28471695290105625,-6.356295556055326,-6.50646821894929,1.9788192504691478,6.185737285955608,-4.6267064760253165,4.023665766728096,0.650634765625,0.167236328125,-0.5517578125
6931,1.058,0.8761319669022529,0.34584261662355253,-0.19755002683230016,-0.271587275102355,-5.660825400939457,-7.133244210574662,0.2640443348174977,6.381055626736908,-4.437769846773694,3.9583478468368174,0.622314453125,0.124755859375,-0.580810546875
6932,1.067,0.8671413311550736,0.361358166628956,-0.22573961583961696,-0.25792986072525415,-4.908159900270078,-7.780978645680215,-1.508849973137052,6.499044525037634,-4.210826997698598,3.8891534518174042,0.6123046875,0.0771484375,-0.593017578125
6933,1.075,0.8571381888507401,0.37659074898627215,-0.25307291572048723,-0.24381885144582788,-4.06881092781713,-8.287521611810348,-3.4043842599197363,6.5002265524487814,-4.066564828808178,3.862203943197054,0.580810546875,0.017333984375,-0.615234375
6934,1.083,0.8463210941961931,0.39133219942424685,-0.2792461649368219,-0.2293933185173826,-3.262795714940912,-8.899091769771097,-5.250186281315973,6.423191661005907,-3.876645212248909,3.8039319023160605,0.565673828125,-0.0224609375,-0.621337890625
6935,1.092,0.8348398733233489,0.40553005160220484,-0.30402766685215005,-0.21483701018541093,-2.2499122623198637,-9.497512520920322,-7.671220246116321,6.307908881426577,-3.6570268096319345,3.699937138606922,0.528076171875,-0.08056640625,-0.641845703125
6936,1.100,0.8226468764621064,0.41881176449582885,-0.32808581880887516,-0.20052061755226222,-1.0285524866903402,-10.339103614571604,-10.997747247572015,6.138028831291252,-3.6335819064312993,3.611215900665746,0.505615234375,-0.12060546875,-0.638427734375
6937,1.108,0.8101135899091072,0.430299951669617,-0.35145143641314924,-0.18718923815443697,0.03602005919831399,-11.094699861162791,-14.830958158806139,5.707715498222716,-3.7098767135152535,3.472286606637019,0.48876953125,-0.15966796875,-0.63623046875
6938,1.117,0.7982866699456475,0.4385264347272879,-0.37327947633618863,-0.1763388532871973,1.1703892110637188,-12.785825015489994,-20.27731017517573,4.721279640275069,-3.753020424578479,3.1374197088258136,0.459228515625,-0.198974609375,-0.650634765625
6939,1.125,0.7890163676205102,0.44162419054041224,-0.39185009187946973,-0.16992572333379252,1.9538352214303882,-14.060228665474508,-28.28421353317732,2.9343282133840627,-3.584524530267427,2.5122751916162986,0.42529296875,-0.223388671875,-0.64990234375
6940,1.133,0.7844309501249966,0.43852562212230495,-0.4048962099340565,-0.16858950859788607,1.9895309548729696,-14.118799150233643,-36.359509036420654,0.5609426663552537,-2.887624883460883,1.73862778589805,0.408203125,-0.22607421875,-0.655517578125
6941,1.142,0.7860437101999075,0.4296969496945625,-0.4105821060490722,-0.17005337771023915,2.136230052849507,-11.982492646406762,-42.23205187598629,-1.7399146857267433,-1.4265411929329312,1.2446842653096064,0.39892578125,-0.21875,-0.66259765625
6942,1.150,0.7940565339828507,0.4165317225186817,-0.40820569836671544,-0.17129989140599086,0.6810270847966055,-12.120520185918227,-43.45000270653998,-3.525968754464748,0.5709646951037463,1.1425263692540446,0.400146484375,-0.191650390625,-0.669677734375
6943,1.158,0.8083413426489093,0.3996318745363511,-0.3965459413688126,-0.17213353828653727,0.6777528332303521,-14.585662182386784,-40.88097147623053,-5.206528802367156,2.842704257838086,0.9171579139918626,0.416748046875,-0.17138671875,-0.675537109375
6944,1.167,0.8272801555548749,0.37915088777334366,-0.3764291386643664,-0.1736469178827849,-0.3742751955790436,-17.714651859145174,-36.5422062397508,-6.7622749724439295,4.71370275139568,0.5070479646631945,0.439453125,-0.12744140625,-0.666259765625
6945,1.175,0.8483636964934819,0.35573617131567026,-0.34973236392720075,-0.17725148380613223,0.17550295037867347,-21.486060070005426,-29.89015927722127,-8.004614833021193,5.902672496664783,-0.15249069335090962,0.47216796875,-0.078369140625,-0.66162109375
6946,1.183,0.8701175142265015,0.32953034872132353,-0.3169183876274391,-0.1840325957310859,-0.8499742894253609,-24.815827076268516,-23.92046722160876,-9.157585710312459,6.81483661790481,-1.0592295296312,0.5166015625,-0.0283203125,-0.6484375
6947,1.192,0.8914080347053143,0.3010657569636896,-0.2777781221601912,-0.19388254304049127,-2.086492540598171,-26.765070034841465,-19.697703130969607,-10.107581947060712,7.760231451911174,-2.049630262211565,0.5634765625,0.049560546875,-0.62548828125
6948,1.200,0.9106670623886682,0.27198112379032213,-0.23363936872067548,-0.20524233278237544,-4.944011042714072,-27.991989797386953,-13.436476140604295,-10.426824587627104,8.556326864936175,-2.7875802677385133,0.609375,0.116943359375,-0.59716796875
6949,1.208,0.9270134864050737,0.24266370188509112,-0.18554220467014554,-0.21756473541609495,-7.175315598669972,-30.35961716693657,-8.130963129593443,-10.537753702996792,9.185578860037078,-3.3873135676783765,0.65869140625,0.177978515625,-0.545166015625
6950,1.217,0.9398228114188854,0.2132795216963877,-0.13360175965795995,-0.23107466018142067,-9.954459382340525,-32.72615793976157,-4.851366668892491,-10.600136478867034,9.810460310522027,-4.057637204711768,0.703857421875,0.249267578125,-0.475830078125
6951,1.225,0.9484404955080428,0.1845412338346449,-0.07808782639153695,-0.24557575382087354,-13.68493016903526,-34.57988069127126,-1.0355926538520939,-10.470552949750266,10.468883521470712,-4.718033602612616,0.74072265625,0.31884765625,-0.405517578125
6952,1.233,0.9523444731111816,0.15702127354073842,-0.020109055279223877,-0.26072964941871746,-17.882275369570003,-35.507259948772095,3.540310223589685,-10.14173983095667,10.98438326839904,-5.2768962165095505,0.7666015625,0.373046875,-0.30908203125
6953,1.242,0.9513746531657922,0.12995216098135345,0.03924600821585203,-0.2765112222118045,-21.947333682788464,-36.355980891169466,7.088358119659404,-9.943972566222751,11.280965002295439,-5.779923449134923,0.78955078125,0.428466796875,-0.227783203125
6954,1.250,0.9455600090823022,0.10277578692030215,0.0981774802842111,-0.29277054020552096,-27.41607078659098,-35.9562495549225,11.885891989199735,-9.784930307114468,11.207319764125314,-6.198599208391875,0.804931640625,0.470947265625,-0.1435546875
6955,1.258,0.9354581306471935,0.07506031386921719,0.15469564503267447,-0.3087932844085793,-33.58447494281245,-33.39430379948395,20.425232613783276,-9.636070513529097,10.728035581355666,-6.399138247808195,0.80224609375,0.5439453125,-0.054443359375
6956,1.267,0.9224440281847727,0.0465141285329623,0.20642403560349093,-0.3229900435589893,-37.89666938806921,-28.528170659426035,32.131825526651184,-9.483134520869136,9.730569648881868,-6.149059587504889,0.7919921875,0.624267578125,0.03369140625
6957,1.275,0.9083538967310097,0.017502865632544537,0.2509557416303039,-0.3340779306255107,-40.133688201916655,-22.93059387993866,44.01929109986697,-9.167194223816418,8.187005691091409,-5.4853939940833385,0.765625,0.69873046875,0.132080078125
6958,1.283,0.8947227071018552,-0.010515899411686415,0.28718445469821957,-0.3418856274188456,-40.416344149083976,-17.80012029303647,52.92337241984347,-8.484842878405368,6.441156814377478,-4.6382135292436875,0.730224609375,0.734130859375,0.236083984375
6959,1.292,0.8827979896208893,-0.037191265527507435,0.31483922500907957,-0.3466421522052106,-39.77403068088928,-12.968160879432798,59.4315093244335,-7.695560814616153,4.583170956872999,-3.7706430758790255,0.698974609375,0.752685546875,0.326416015625
6960,1.300,0.8731767491319087,-0.06197890726930084,0.33477268955068423,-0.3487810576280432,-38.483167366755254,-8.055626689242802,64.48158531153416,-6.83170380424502,2.9066801683102703,-2.9508298204021868,0.661865234375,0.755126953125,0.405517578125
6961,1.308,0.8659949541769666,-0.08429558079653694,0.34820938124888245,-0.3488512880992107,-36.214168663320436,-2.9572298259669623,68.99896940994984,-5.8975011821379075,1.5244132273111421,-2.210340391702794,0.62890625,0.75146484375,0.455322265625
6962,1.317,0.8613736718169921,-0.10288620448124976,0.35583891360747616,-0.3476039326454844,-32.45010556389389,2.224801168347465,72.99694039528889,-4.696737634743828,0.3891290642477351,-1.52865983961615,0.616943359375,0.734375,0.490234375
6963,1.325,0.8595663489247978,-0.11627658166590454,0.357774365260085,-0.3458655113117355,-27.762650591337213,5.771519773363488,74.05861564822493,-3.117609452255339,-0.606944289863299,-0.8883665433834994,0.605224609375,0.727783203125,0.5087890625
6964,1.333,0.860594400270557,-0.1240584459849965,0.3542020564285725,-0.34427849689534534,-22.26814206754318,7.018942806930859,71.83274618288887,-1.4124755211662174,-1.5165802206554995,-0.3567762430966596,0.617431640625,0.7216796875,0.515869140625
6965,1.342,0.8644322509797732,-0.12668306361980428,0.3450351553013597,-0.3430146155255049,-16.75161799553553,6.19990646819627,66.91202330176888,0.22642160374106948,-2.475111333692172,0.08073957957559111,0.6240234375,0.7119140625,0.48828125
6966,1.350,0.8706721264992927,-0.12462245756682513,0.33043844605758943,-0.342359057970211,-12.434220684414454,3.8065119838787895,60.17584007673531,1.7686213614636053,-3.3965335837363964,0.3749312206947803,0.6416015625,0.7255859375,0.45947265625
6967,1.358,0.8784937534973343,-0.11803630761289131,0.31124940544557267,-0.34269514551720387,-10.080980685865077,0.9664661595761328,52.23601173195007,3.2171272186350874,-4.079660630844583,0.5194389739508743,0.65625,0.72509765625,0.4140625
6968,1.367,0.887042218593663,-0.10699065574426468,0.28868311413784703,-0.3440511032209012,-9.862331871495204,-1.9385746106627861,44.06546164870656,4.532806052276819,-4.451144334093267,0.6014857859772736,0.67236328125,0.729736328125,0.347900390625
6969,1.375,0.8957328961097815,-0.09222634024228928,0.2636037559912903,-0.345933434087516,-10.301294084888664,-4.907037750100096,36.163688838103575,5.571223315959429,-4.674634412545147,0.694517260327232,0.699462890625,0.732666015625,0.28125
6970,1.383,0.9042244109051157,-0.07533941362533077,0.23613166145339903,-0.3477700762531842,-10.741255866543726,-7.540051103743626,29.749821279422235,6.220391973236146,-5.002400135786739,0.7689668446064915,0.7138671875,0.726318359375,0.208984375
6971,1.392,0.912435834127168,-0.057778350954185494,0.20591715679225836,-0.34888484532903774,-11.593243544199613,-9.211787279871341,25.542692199745588,6.548458970386181,-5.537528589261312,0.8911079961316758,0.71826171875,0.704833984375,0.125732421875
6972,1.400,0.9199598077780177,-0.03954840884448476,0.1734111859271555,-0.34934000061006426,-12.859503102679591,-10.65324303784791,22.850331216071226,6.846315875150848,-5.9599218035936845,0.9791204636350164,0.727783203125,0.6884765625,0.046875
6973,1.408,0.9264314766096576,-0.02040302154397124,0.1391041436724275,-0.3492255332473361,-14.12400290980512,-11.668162764661318,21.140214444013377,7.164674160306871,-6.241460142418396,1.0378793858648636,0.71875,0.664306640625,-0.0205078125
6974,1.417,0.9316361284747294,-0.0003249242611018334,0.10310134221295854,-0.34845965588390393,-15.496256036277838,-12.541217559913292,19.524099776750298,7.487811479467031,-6.502632506586058,1.0992235592488302,0.720703125,0.63427734375,-0.087646484375
6975,1.425,0.9353601540756816,0.020901726699228452,0.06569968000607952,-0.34691216760962257,-17.102631215057205,-13.166214998509368,17.463729990509993,7.8413926857126395,-6.6819813386900995,1.1786456834619279,0.70458984375,0.606689453125,-0.15869140625
6976,1.433,0.937414486610549,0.043366992553473434,0.027768919686185504,-0.3443868048416055,-18.532238561032198,-13.688462105722971,15.301953198488269,8.15771351035871,-6.667493776448893,1.2812601070754717,0.69482421875,0.580810546875,-0.22216796875
6977,1.442,0.9377229269026022,0.06718267868444061,-0.00977091462375013,-0.34068567518082676,-19.2699550323419,-14.02382075362045,12.956270951922633,8.439064896839565,-6.443434026208727,1.4065155689748228,0.6787109375,0.55224609375,-0.2841796875
6978,1.450,0.9363097748549402,0.09255938236507667,-0.04594947697989791,-0.3356268937563866,-19.70438877920965,-14.447795491508254,10.631304065591983,8.710724172123989,-5.992012392928111,1.545674152031164,0.6650390625,0.51318359375,-0.3486328125
6979,1.458,0.933311344108073,0.11947016651278489,-0.08007635996563989,-0.3290054571693949,-19.676280614217784,-14.606701742452573,8.652147933803676,8.942512555731048,-5.3899455265177485,1.706703215213691,0.657470703125,0.4619140625,-0.402099609375
6980,1.467,0.9289026916799692,0.1476774408454658,-0.11184185641571627,-0.32065957339291895,-19.156314651432734,-14.904658488532368,6.586791583999973,9.120167194600581,-4.7360323852145925,1.8890122077746077,0.631591796875,0.425048828125,-0.466552734375
6981,1.475,0.9232745808667417,0.1762861563063957,-0.14135280516314397,-0.31065515268955285,-18.38125921844134,-14.958730914415113,4.633508408347928,9.12414883829466,-4.176923300906296,2.0743614264904653,0.615478515625,0.37255859375,-0.49951171875
6982,1.483,0.9166529829760119,0.20417924721406186,-0.16917693653035284,-0.2990607094796694,-17.412147061232588,-14.794693688162578,2.6759751221664825,8.935232145004635,-3.822086302795679,2.30546481105059,0.60009765625,0.32177734375,-0.530029296875
6983,1.492,0.9092725666287694,0.23083147744685914,-0.19548250187378155,-0.28587903046078206,-16.225100261199163,-14.399526571669877,1.1442605001838309,8.65549284680717,-3.5312839910902722,2.576492976384276,0.591552734375,0.260986328125,-0.57177734375
6984,1.500,0.9013054565993383,0.25598077614017467,-0.2205371583720851,-0.27108241906862574,-14.685407432534522,-14.036689028362034,0.14674780822263467,8.348916629264695,-3.298041341526285,2.889610358635189,0.57763671875,0.207275390625,-0.585693359375
6985,1.508,0.8927518648709706,0.2795008743876288,-0.24476700117296485,-0.254877390371819,-12.784261315220073,-13.989582261091998,-0.6064366808724654,8.054457685516503,-3.1719324799088957,3.192313492560028,0.56396484375,0.14892578125,-0.60986328125
6986,1.517,0.8835171080858784,0.3013485838295253,-0.26841163897933956,-0.23778507691596332,-10.82375441348363,-14.09524280947725,-1.0951298262159959,7.756786050561536,-3.1274326499671155,3.3991605000975773,0.550048828125,0.096923828125,-0.62548828125
6987,1.525,0.873422354847826,0.3212187804357021,-0.2923088851916216,-0.22024395743245734,-8.71321321950078,-13.811056578136348,-1.496473672624082,7.444378694263342,-3.3190704839028076,3.5918312548485454,0.532958984375,0.035888671875,-0.63916015625
6988,1.533,0.8622885572325223,0.3387890474636424,-0.31719209047201274,-0.20265636710088208,-6.792997896226204,-13.781050304731114,-2.1831257781072266,7.096138460464746,-3.714456435163609,3.783142887769492,0.5048828125,-0.02099609375,-0.646484375
6989,1.542,0.8499962410874634,0.354120414802806,-0.34299053093387555,-0.18564109902381495,-5.302820455121251,-13.688188328858564,-3.227772790632501,6.729578082117556,-4.150065868137288,3.854321507625477,0.476806640625,-0.062255859375,-0.656494140625
6990,1.550,0.8366444441942201,0.36752104976433697,-0.36911026943336556,-0.1694460414937239,-4.047475469493359,-13.51764439064649,-4.34608585038374,6.37069104693761,-4.456100426578672,3.8248957113089572,0.45166015625,-0.115966796875,-0.665283203125
6991,1.558,0.8224287133706202,0.37913968102296797,-0.39510765601220904,-0.15412350196477514,-2.6871213908395863,-13.276024960870624,-6.017204978466836,6.008564686058519,-4.660094895003838,3.762763099217978,0.419189453125,-0.158203125,-0.66455078125
6992,1.567,0.8078508556503721,0.3894969964806487,-0.4196948611216571,-0.13973298932459838,-1.3027205681567173,-13.381691298445354,-8.40321267438236,5.649937960008881,-4.544842113602849,3.555401436558437,0.389404296875,-0.20703125,-0.661376953125
6993,1.575,0.7931014199814108,0.3997596742921847,-0.4418691580147088,-0.12622989989954414,1.1410370788189947,-13.95703732861611,-12.040104541945654,5.479069966465424,-4.182804271842657,3.1625193818060198,0.3515625,-0.2392578125,-0.65966796875
6994,1.583,0.778395264250347,0.41035314565029674,-0.4612108316178862,-0.11399858440295095,2.896388185912327,-14.750121297634031,-17.129020651188156,5.315139197957017,-3.7483365851061525,2.613653948813944,0.32373046875,-0.2734375,-0.661376953125
6995,1.592,0.764843808229238,0.4208823417004231,-0.4767448171563859,-0.1028901490556251,3.3672813001096022,-14.674458433188224,-23.599093681625813,4.962425113188614,-3.0234839646795124,2.0682670533866423,0.302001953125,-0.306640625,-0.647705078125
6996,1.600,0.7545868803815063,0.4308891534226456,-0.4862073884144216,-0.0923880558841343,4.523942931780069,-15.19435563941706,-30.897719554622615,4.312500076608507,-1.603817951138779,1.4838582292413867,0.2900390625,-0.331298828125,-0.6357421875
6997,1.608,0.7491076081470144,0.43793581406221016,-0.4898189625518168,-0.08442391901937862,7.037358941078168,-16.06401227545642,-38.69092670718652,2.857299011948688,-0.3159801356229117,0.870833324662647,0.28271484375,-0.343994140625,-0.635986328125
6998,1.617,0.7494259713969905,0.43882236427337684,-0.4888747122803947,-0.0824449010064437,9.489098983293724,-16.947681766786683,-45.049856131329875,0.34340395913057636,0.4320649225348177,0.15716938910447023,0.287353515625,-0.34814453125,-0.62451171875
6999,1.625,0.7562677548587371,0.4324369679230285,-0.48313365765354516,-0.08740263483882962,8.773200966021431,-16.800866076961277,-47.57906774956111,-2.5604857512878696,1.185957197752157,-0.6137245822151101,0.297119140625,-0.327880859375,-0.63671875
7000,1.633,0.7699350228154946,0.419856468722182,-0.4705975087148287,-0.09725528831708824,7.612600956439943,-17.202363757921912,-45.81679239399786,-5.103820353014897,2.5728258487311955,-1.3456830957581574,0.319580078125,-0.29931640625,-0.6474609375
7001,1.642,0.7896204810553571,0.40279023622900917,-0.44953192555688976,-0.11036561693571383,6.32828611081784,-19.809093516306774,-40.710686715854,-7.108552685676093,4.398273462156974,-2.1613798204757475,0.35009765625,-0.254638671875,-0.6669921875
7002,1.650,0.8130073144331811,0.3830748832017278,-0.4200225160757757,-0.12591197928514986,4.042408548714048,-22.56710915084582,-32.84445676044566,-8.454856960454421,6.091359068715427,-3.0549891283954893,0.391357421875,-0.20068359375,-0.674072265625
7003,1.658,0.8378482526986459,0.36148278883387713,-0.38311742843275226,-0.143392938660812,1.5025453151912231,-25.281326824118263,-26.48760081514727,-9.376975947681824,7.45113563979282,-3.881651323570269,0.435791015625,-0.12744140625,-0.66650390625
7004,1.667,0.8626604064402121,0.33813832403774063,-0.3393863667268328,-0.16216162017356653,-1.8725214269920698,-27.879312654520433,-21.41734948404222,-10.079304301155295,8.647200900210688,-4.5718510737553135,0.494384765625,-0.056640625,-0.650634765625
7005,1.675,0.8858071844667247,0.3137093208985448,-0.289510834339838,-0.1819768411868904,-5.423230707005654,-31.22601098102968,-16.48087260734547,-10.496961533156085,9.662399337565619,-5.266589542943417,0.54833984375,0.017333984375,-0.632568359375
7006,1.683,0.9057372855257078,0.2882693324158613,-0.23528645211643076,-0.2029311386837882,-9.429192777034563,-34.11116836843401,-11.046864572839631,-10.73706164916903,10.230281058001783,-5.905215394469124,0.61669921875,0.106689453125,-0.5908203125
7007,1.692,0.9214450996825052,0.26231390171817376,-0.17816173805864313,-0.22447436452390176,-13.765052959112365,-36.912612216568775,-6.836068903323597,-10.734079327920021,10.561751403172892,-6.413152326739535,0.66845703125,0.19189453125,-0.54248046875
7008,1.700,0.9323051915640131,0.2363244800022077,-0.11909793783981612,-0.24652271931158473,-18.553179340112013,-39.57394566275627,-3.184781166866082,-10.560369669738622,10.745375240441373,-6.905055966681421,0.7060546875,0.270263671875,-0.465087890625
7009,1.708,0.9379744087210756,0.21056596191265325,-0.058909147406982054,-0.26906448412960493,-24.28166229149834,-42.244665680226895,0.30104359264872776,-10.295790566360981,10.838850344023452,-7.395141087468785,0.731689453125,0.353759765625,-0.389404296875
7010,1.717,0.9382892911168399,0.18503235410933253,0.001083719838352583,-0.2921901087640179,-32.556718139625765,-43.30861000323778,4.298119671709638,-9.968899266235482,10.699606272304985,-7.864243834775479,0.7470703125,0.428955078125,-0.307373046875
7011,1.725,0.933778779551175,0.1596262851319478,0.059815457234493864,-0.31464066970231486,-42.56251570688197,-40.406981492492896,11.012687002320861,-9.636137720661036,10.458445093062767,-7.995105347077941,0.76513671875,0.4873046875,-0.224609375
7012,1.733,0.9252190255731675,0.13506173011489545,0.11626815299241015,-0.3349773132251543,-50.25617503041101,-35.832303125246206,21.376378508912307,-9.150733607070668,10.146399370055997,-7.726446742869216,0.769287109375,0.571533203125,-0.1474609375
7013,1.742,0.9143483964837911,0.11038267930241934,0.1666758523580267,-0.35213894161007575,-53.98267185709286,-29.382443453934794,35.74075259847059,-8.699425826373313,8.96152990976228,-7.012278329488213,0.76708984375,0.642822265625,-0.072998046875
7014,1.750,0.9035636772322196,0.08456194846555479,0.20769600096465712,-0.36508126388735296,-55.06693776570231,-22.202311194256453,48.86343819365262,-8.329212041055603,6.9099023852904216,-5.87534209530892,0.73828125,0.711181640625,0.007568359375
7015,1.758,0.8943178523599906,0.05787777502226796,0.23926577385555223,-0.3736276643531493,-53.16719858528101,-14.959157872244992,55.758257713300566,-7.932865959409591,4.795197257120451,-4.635369076969329,0.71533203125,0.76416015625,0.097412109375
7016,1.767,0.8870219152621244,0.03142023175729708,0.26362862145035265,-0.37776294264156957,-50.40532569579597,-9.387030648561604,57.947484436527965,-7.5223216008072855,3.2178457907843194,-3.4019094699051915,0.685546875,0.7919921875,0.18017578125
7017,1.775,0.8808371878054087,0.006790752657344179,0.28417728107886087,-0.3785802519625559,-46.86134831114568,-4.816314551222884,60.63760031033863,-6.999905007853254,2.5242144158899267,-2.447871218377215,0.657958984375,0.798583984375,0.259033203125
7018,1.783,0.8754830702902211,-0.014704284792877513,0.30193414799210944,-0.37702645519938843,-41.11954381049293,0.21191175225661227,65.75619782460707,-6.251574848174421,2.1676931322494255,-1.6547918603890273,0.645751953125,0.799560546875,0.31201171875
7019,1.792,0.8713515540066514,-0.03255319881475295,0.3158887629866448,-0.3740334851265166,-33.32879983581618,4.49012095152573,69.95976507506131,-5.2362762045589015,1.6026247086825822,-0.9890882002283723,0.61865234375,0.786865234375,0.3681640625
7020,1.800,0.8690813782173872,-0.046589361438919896,0.32451401378667694,-0.3704290003395261,-25.17250429228319,7.252914748973987,71.18031679381204,-3.9968113471933058,0.6866423345207162,-0.44838184871734343,0.611572265625,0.790771484375,0.398193359375
7021,1.808,0.8691880658818438,-0.05718574063559868,0.3269937455162061,-0.36649282065249317,-17.012559107942916,8.27144041646155,69.44635200516868,-2.728972261869912,-0.4797885694700831,0.03243108347957412,0.61181640625,0.765380859375,0.420654296875
7022,1.817,0.8718998994571969,-0.06503272347025373,0.3229002707300894,-0.3623489000493949,-9.893852364893517,7.579316575956836,66.10199385237425,-1.5609211174763638,-1.8149430266596782,0.429362155040499,0.612548828125,0.754638671875,0.41943359375
7023,1.825,0.876940326022993,-0.07010100732417165,0.3124854127002478,-0.35834952241684265,-4.471907208355895,5.884664452971417,61.828871774732754,-0.3809987793890102,-3.074328358469161,0.7189758295678181,0.63427734375,0.756591796875,0.40283203125
7024,1.833,0.8833759505744143,-0.07156091232070089,0.2969525641486036,-0.3554506160075526,-1.7487151677968822,3.6517647033939746,56.28121592766657,0.9234985863071414,-3.92739288878257,0.7912156881837749,0.64990234375,0.75634765625,0.36474609375
7025,1.842,0.8902527241400157,-0.06851437657056055,0.27779966477259693,-0.3543772193816383,-1.3451979882537535,1.207388163678015,49.4177488353488,2.3249995491433864,-4.308805469102975,0.7014176941266231,0.6640625,0.748046875,0.319580078125
7026,1.850,0.8967886338309229,-0.06088654899758143,0.2566268295021928,-0.3552543381332375,-2.5106802076799313,-1.3912078889958799,42.08007169826699,3.6007708717452953,-4.297874441460705,0.5273168427139558,0.677734375,0.748291015625,0.27099609375
7027,1.858,0.9023997948607613,-0.04902087116660119,0.23491817613025628,-0.35788966868150485,-4.160001124978404,-3.4964279092817017,35.37103150955938,4.651953811047881,-3.9660185139167625,0.3238056898384061,0.677490234375,0.74658203125,0.213623046875
7028,1.867,0.9071231820937053,-0.03402637965993292,0.21272140912226775,-0.36155129663225544,-5.467604137724117,-5.098769939322224,30.24213820058219,5.420660887421154,-3.744144131820533,0.19534631374946915,0.6904296875,0.7353515625,0.150390625
7029,1.875,0.9111350473456978,-0.01705371439175399,0.18945237064858078,-0.3655815853943276,-7.2682119649052845,-6.4917513432789,26.29374386513182,5.955658346157787,-3.7626886560247557,0.14601811399156664,0.68896484375,0.728515625,0.092529296875
7030,1.883,0.91452791730736,0.0012577535104054413,0.16466382020530151,-0.36949009842885616,-9.06193365311514,-7.299945577807836,23.780859711421023,6.375749634480623,-3.953937541618813,0.1725568464940959,0.692626953125,0.71337890625,0.025146484375
7031,1.892,0.917561463182138,0.019782503420771702,0.13742563866509466,-0.3725638303417973,-10.901191982383756,-7.729462140644025,21.978534049325486,6.605356364086464,-4.454255616057615,0.33330610347551776,0.691650390625,0.69287109375,-0.0341796875
7032,1.900,0.9203643564591798,0.03782267797190892,0.10648226433533968,-0.37438005258364354,-12.742555009186306,-8.09357249542528,20.383637228007185,6.7915451162856755,-5.304422631878493,0.5910913759447066,0.68310546875,0.67041015625,-0.09228515625
7033,1.908,0.9226895244158988,0.05517661966076172,0.07164834641999274,-0.37478806895531647,-15.274077834877811,-8.2327192019915,18.77277592451831,6.956962559791308,-6.197092105528992,0.8770160964186807,0.677001953125,0.65185546875,-0.16796875
7034,1.917,0.9240676803664273,0.07269748474192386,0.03398235055816426,-0.37371004490774695,-18.047203410915525,-8.282252369638243,17.047669328486,7.237198648793641,-6.777443949133324,1.161476322505367,0.662841796875,0.62060546875,-0.234619140625
7035,1.925,0.92408031556298,0.09161781950360344,-0.00485053010081998,-0.3710232039861785,-20.830390011271753,-8.500963199220655,15.17169452315763,7.662762865536194,-6.868911522024182,1.4273960352064996,0.6494140625,0.5869140625,-0.288330078125
7036,1.933,0.9225477361929361,0.11272066473876052,-0.04331289106410383,-0.3665020049792497,-22.772670336414034,-8.992732546452416,12.77077260611325,8.150644479172154,-6.556629053578584,1.6863254684759728,0.636962890625,0.55029296875,-0.3564453125
7037,1.942,0.9194968924332887,0.1360783536328379,-0.08025399622621697,-0.3599547785039446,-23.91281294454919,-9.824008663699772,9.981272894093243,8.578803893953364,-5.981171487442838,1.9365640501628971,0.615234375,0.510009765625,-0.416015625
7038,1.950,0.9151096576289782,0.16141543295175287,-0.11473568302464442,-0.35121944074900047,-24.102308682756053,-10.297606206190713,6.870245917474926,8.88855848062823,-5.222528230276393,2.1858990898592907,0.601318359375,0.45654296875,-0.46630859375
7039,1.958,0.9095689382237229,0.18843596663174364,-0.1464568353912231,-0.34018616736328133,-23.76780292619143,-11.004462294847722,3.733939926566246,9.134977129052775,-4.4176728243199985,2.440227554540178,0.584228515625,0.40087890625,-0.515625
7040,1.967,0.9032046621428541,0.21601004177117322,-0.17519401650752636,-0.3269068012712334,-22.439234570584674,-11.5277013859754,1.6830058969943773,9.12685337926001,-3.6472848114802607,2.708838693753297,0.572265625,0.346923828125,-0.54833984375
7041,1.975,0.8962694841893355,0.24380522560617426,-0.20038587116409926,-0.3116175962873575,-21.384970061876427,-12.415493176695767,-0.23133521084093334,9.012778094728853,-2.7835935538833807,2.9075676846937126,0.568603515625,0.283447265625,-0.57568359375
7042,1.983,0.8890209515432231,0.27128147057568824,-0.22188162480189622,-0.2946466629961123,-19.857744884090167,-12.85473562301672,-2.422189867459013,8.764445487658314,-1.9261043413806687,3.0439791666156917,0.555908203125,0.22119140625,-0.60107421875
7043,1.992,0.8816627379761676,0.2976974264740305,-0.24046513678504533,-0.2760861762675851,-17.33274993760941,-13.175991626543363,-4.30943909274477,8.426718812953743,-1.2859036899736176,3.2443082247273636,0.5595703125,0.164306640625,-0.61474609375
7044,2.000,0.8743256955163184,0.3221447964964589,-0.2575164349369131,-0.2558565887123946,-14.405607516110415,-12.92723902014606,-5.186047446299673,8.000328877168137,-0.9675292226324066,3.6009727879922258,0.558349609375,0.10498046875,-0.621826171875
7045,2.008,0.8668569039924826,0.3439168152838436,-0.2746437906756099,-0.2342031605442553,-11.659943842478048,-13.250247504636336,-5.708921569027971,7.544816420004182,-1.0506197256037884,4.066182194473863,0.553466796875,0.046875,-0.627685546875
7046,2.017,0.8591774572753392,0.3619486285534771,-0.29303781979505705,-0.21198142222350397,-8.750021755306276,-13.790457732727697,-5.749758013922722,6.889300109659265,-1.486647804206089,4.520470468830888,0.54296875,-0.01318359375,-0.621826171875
7047,2.025,0.8509606220972603,0.37587158961275613,-0.31369192921548894,-0.19022076991455947,-5.494049206069408,-14.090826757120825,-6.3397355973274445,6.1743694158915625,-2.244741914951573,4.887374420593442,0.521484375,-0.0595703125,-0.636962890625
7048,2.033,0.8417602167223537,0.38581272357376606,-0.3373904900885597,-0.16957575613845832,-2.922443768257375,-14.580599999732529,-7.104109243360753,5.501470961657204,-3.218138971021042,5.18511214999772,0.495849609375,-0.104248046875,-0.63134765625
7049,2.042,0.831227622197005,0.3919722991593808,-0.3641973468891897,-0.15092597293805216,-1.3364391147395112,-15.47725390355151,-8.89679864783088,4.829017645649111,-4.297773243787536,5.325965289842766,0.460205078125,-0.138427734375,-0.631103515625
7050,2.050,0.8189985020328778,0.3956469474247525,-0.3931465694647581,-0.13468749600267185,0.2371480399540524,-16.309370416840554,-11.780553593303244,4.356353982531208,-5.185601361797907,5.198162219773893,0.4248046875,-0.1875,-0.6455078125
7051,2.058,0.805192509334933,0.3984508685368113,-0.4223621133205984,-0.12046648290928312,2.708725806901077,-17.445508624241608,-16.642557092987975,4.156288935091148,-5.61099574337129,4.861496360401463,0.3828125,-0.22314453125,-0.651611328125
7052,2.067,0.7903934603877402,0.4003993992832835,-0.45076030656024435,-0.10850642773400401,4.983509988231521,-18.824360124250717,-23.63278456260003,3.8298629805133184,-5.790144249816149,4.400761874836146,0.338623046875,-0.259521484375,-0.6552734375
7053,2.075,0.776268705333457,0.3999170050133274,-0.47686520896081597,-0.10036363237670176,6.387978045039491,-19.295357877708526,-32.011030624888875,2.8333188022820375,-5.715284829909273,3.738801330000293,0.301513671875,-0.2841796875,-0.661865234375
7054,2.083,0.7656268194817071,0.3957405411266237,-0.4977392339065386,-0.09726588522840098,6.141137534595479,-18.970130724773217,-40.83361251040396,1.1047105915116375,-4.911703213478614,2.800920430886593,0.265869140625,-0.283203125,-0.6591796875
7055,2.092,0.7617169850970152,0.3860419398864407,-0.5107860551368506,-0.0992797116291202,5.407471249660288,-17.417845985964586,-47.87234754591864,-1.3424073797812874,-3.2840554094348455,1.935532270953016,0.236572265625,-0.2841796875,-0.675048828125
7056,2.100,0.7670629785246541,0.3696884971422238,-0.513592492774649,-0.1056766455898941,3.5643911699825948,-16.74061028848742,-52.06376653961834,-4.198515514590133,-0.8411635994179535,1.2211604141375616,0.234130859375,-0.254638671875,-0.688720703125
7057,2.108,0.7820295707250476,0.3472594518493918,-0.5046085432474159,-0.11493842566600013,0.7367626196018459,-17.265218199292278,-51.24234842068462,-6.82582365793066,2.110241443241534,0.6399780433706604,0.24267578125,-0.206298828125,-0.696533203125
7058,2.117,0.8054295511586421,0.31975959632522954,-0.48282696002941883,-0.12615532230970178,-3.0176778926575074,-21.19928595476513,-45.602253579703344,-9.069777417773247,5.2291391881578635,0.05370086338459057,0.278564453125,-0.158203125,-0.718505859375
7059,2.125,0.8342998894109461,0.28812900651325624,-0.4488408736420918,-0.13952505252739011,-5.696562629840113,-26.548421120610993,-39.0869347563783,-10.914565148890995,7.94094942168041,-0.6564166996581902,0.32373046875,-0.0810546875,-0.719970703125
7060,2.133,0.8652763671112548,0.25294324845699495,-0.4039851354642399,-0.1552821042577418,-9.077226505020077,-31.849320310966622,-31.743193725057964,-12.392034735620737,10.056932474015094,-1.4320095681054006,0.389892578125,-0.006591796875,-0.7119140625
7061,2.142,0.8954617450400283,0.21503967725322604,-0.3493291968169362,-0.1728447645372287,-13.958565123801085,-36.13099584539003,-24.45796351034855,-13.457407993135691,11.816949755089345,-2.170738437616778,0.46484375,0.087646484375,-0.67578125
7062,2.150,0.9223980065125954,0.17442238531742046,-0.28678735441353315,-0.19108051295267692,-19.770154361366703,-39.975154205859866,-17.508654614299623,-14.254309308705922,13.086524023298548,-2.628625530379622,0.539306640625,0.18896484375,-0.63427734375
7063,2.158,0.9438247116803326,0.13186226539647086,-0.2190132222764384,-0.2093811478002247,-24.01176477087863,-43.76447348545989,-10.390659602765401,-14.703805586201813,13.785038566161724,-2.983522556578093,0.602783203125,0.272705078125,-0.5556640625
7064,2.167,0.9581721778896216,0.08888914075752061,-0.14944822539354383,-0.22731041793188886,-26.099735192670973,-45.85809317408209,-1.2636349578370085,-14.640047740268251,13.800503712706506,-3.288604096490912,0.66162109375,0.35791015625,-0.4580078125
7065,2.175,0.9649632284088033,0.048469340282091336,-0.08222924101631753,-0.2444075342401685,-28.58692644957593,-45.07312384385004,8.416702890176044,-13.731214032504145,13.152164320618253,-3.5520199735928037,0.71142578125,0.431640625,-0.35400390625
7066,2.183,0.9650902690079116,0.015050641242722549,-0.018587871209621642,-0.26082320047939433,-30.469556990100923,-41.36848086688235,16.68807406017698,-11.804720435509687,12.600390943423648,-3.8802010250483026,0.741943359375,0.4833984375,-0.25244140625
7067,2.192,0.959769688024575,-0.010130479706262518,0.041824929859246456,-0.27747106979359154,-31.713308193248352,-38.262048512308986,21.546405741419964,-9.668583750675015,12.34581293484266,-4.299679545747084,0.75390625,0.53466796875,-0.160888671875
7068,2.200,0.9503143485298282,-0.03140614668341878,0.0982071219119344,-0.29372036724510947,-33.65812131642987,-36.54331389112666,23.645406933573344,-8.516977531395135,11.711638171328955,-4.453655066176212,0.758056640625,0.59375,-0.072265625
7069,2.208,0.9378554559567045,-0.05270857531742355,0.1507257413351378,-0.3081082613615269,-35.6691641066434,-34.803364891845575,26.651431894538092,-8.309047349534845,10.885904335615646,-4.268391334638247,0.764404296875,0.650146484375,0.034423828125
7070,2.217,0.9231592901733476,-0.07557263312791397,0.20027341139671923,-0.31930590783177754,-38.48192888193228,-32.00132352097615,31.172709463443773,-8.591850420047235,10.139539589123615,-3.8111792703853746,0.74560546875,0.701904296875,0.158447265625
7071,2.225,0.9066461948687119,-0.09728262049852468,0.24766104472731462,-0.32740307879371083,-41.242077303374266,-29.50601521110768,36.19702209054612,-8.342264456635679,9.779056513560137,-3.243395695016524,0.727783203125,0.7236328125,0.28076171875
7072,2.233,0.8888422575079644,-0.11626163915422623,0.292007421256077,-0.3334281608693146,-43.42255181579067,-28.793610117513953,42.233711882976145,-7.671362550609109,9.360250092904732,-2.8055677433861055,0.685302734375,0.720458984375,0.400634765625
7073,2.242,0.8710757964113355,-0.1350339229967106,0.33097678243408535,-0.3368191889368187,-44.1882125620246,-26.10706461296386,50.454851855009245,-7.36913017963114,8.149397224085723,-2.3716111970253264,0.634033203125,0.705810546875,0.494384765625
7074,2.250,0.8553312134629873,-0.153817615182839,0.36202962171474995,-0.33716940777074234,-42.75268806917763,-21.27507447298272,59.324403511619444,-6.9173680057197275,6.235988759467446,-1.833755645330828,0.597412109375,0.681640625,0.57080078125
7075,2.258,0.8449169295138155,-0.17242043244832014,0.38118558830422405,-0.3332928501550001,-39.833819692372984,-11.089064753945813,75.04867555283069,-6.077494771116201,3.184249578652792,-0.9539925442976718,0.566650390625,0.65234375,0.630615234375
7076,2.267,0.8413336159833612,-0.18353503919759503,0.3890085498892897,-0.32733008434320754,-36.61745677462264,-6.0364583155301315,85.8729221275789,-3.569540436872424,0.7772928275644434,0.22779928036116523,0.562255859375,0.635009765625,0.6474609375
7077,2.275,0.8422180496463243,-0.18945251528982307,0.3887576477827729,-0.3219378706997768,-27.481745183421797,-6.665672809352971,80.12727557548554,-1.6304563550173432,-0.8388966234993588,0.5953117888149428,0.577880859375,0.6162109375,0.649169921875
7078,2.283,0.845211004123682,-0.1971080612512753,0.3834538330220675,-0.3158004569956879,-18.145232208683286,-7.639045410547795,66.50885621310901,-1.5702534800948882,-2.223026715686285,0.514782659569251,0.58642578125,0.606201171875,0.64990234375
7079,2.292,0.8496990598757944,-0.20617623086498335,0.3748368276324403,-0.30822106047924136,-11.421674986045186,-5.784583849608833,59.88254685595344,-1.6667255164586152,-3.2076158523345475,0.6350680661442145,0.60546875,0.59765625,0.639404296875
7080,2.300,0.8557824870276712,-0.21098018711700348,0.3633427117050053,-0.3018373227280898,-6.777684239309561,-5.932831586452098,57.63856902575809,-0.3987236856593497,-3.56371398590767,0.749321187433007,0.623779296875,0.593017578125,0.621826171875
7081,2.308,0.8633080863539272,-0.20713422277472113,0.3486489557682397,-0.30039718279828914,-3.5886970307312778,-7.618603641347305,54.46381360745283,2.111405515811981,-3.466618104840135,0.4318204851074905,0.647216796875,0.5986328125,0.583740234375
7082,2.317,0.8716806343001741,-0.19500368130157464,0.3307769990245384,-0.30452095655504696,-3.103690575295694,-11.27921394317494,46.28862467076574,4.567519715927167,-3.3253805473001594,-0.12584913943605833,0.6591796875,0.63330078125,0.537109375
7083,2.325,0.8805433651030439,-0.17840815070735813,0.3096336417944126,-0.31135337127340934,-5.068470286665212,-12.206406071020101,37.72972213055926,5.974079725190047,-3.5901268849518,-0.4540002312452152,0.68212890625,0.660400390625,0.475830078125
7084,2.333,0.8899090404287138,-0.16053345323417428,0.28510363931345445,-0.317815709187228,-6.386324404562293,-13.2467335647526,31.12643130979358,6.496814346071052,-4.269368840730066,-0.38954278425211275,0.68408203125,0.680908203125,0.409423828125
7085,2.342,0.8992696213461115,-0.14216517459662267,0.2573570879761342,-0.32383721300118884,-7.209634560942108,-14.574993456893607,27.11930754435291,6.811584973466153,-4.928609869870853,-0.38453779612025757,0.7021484375,0.69970703125,0.336181640625
7086,2.350,0.9080799494155819,-0.12305424327091366,0.22674063631312527,-0.32990474765716254,-8.727583022160248,-15.05528254413826,24.952274326254212,7.185178791250675,-5.462001780672581,-0.4907307319968396,0.708740234375,0.705078125,0.2431640625
7087,2.358,0.9161709225526758,-0.10261506133247342,0.1931282044955909,-0.3358608141552403,-11.09103349989105,-15.439614617300562,23.253482306466076,7.679333923077586,-5.966827537088987,-0.5383379121335651,0.704833984375,0.703125,0.167724609375
7088,2.367,0.9233696573322435,-0.08106192174366951,0.1563688842595447,-0.34112492256764726,-13.593531276084653,-15.373132863009939,21.800855947258658,8.129981797786701,-6.552536393137195,-0.4852705178165228,0.710693359375,0.6953125,0.072021484375
7089,2.375,0.9295359292651998,-0.05859636481489075,0.11617241837475684,-0.3450121612994563,-16.11305810899137,-15.631546991696254,19.654275047443278,8.537641621245264,-7.221183845290048,-0.2963661294304263,0.708251953125,0.673095703125,-0.00732421875
7090,2.383,0.9341515447293821,-0.03535112180398615,0.07363896573175767,-0.34740249336017415,-18.857252535812147,-15.933756311566729,17.273841685482434,8.846663260732267,-7.663155197463013,-0.1027693456029764,0.69287109375,0.654541015625,-0.094970703125
7091,2.392,0.9368513888544778,-0.011318729034805346,0.03024174339979866,-0.34823382737840575,-21.36473685696385,-15.443551578206876,15.131572208848784,9.048406292752977,-7.765394298416926,0.09403576636284647,0.669189453125,0.625244140625,-0.179443359375
7092,2.400,0.9376693070345746,0.012580532793280174,-0.013232846790209944,-0.3470488331715929,-22.912827805321566,-14.796339389783137,13.397726211939254,9.00833085909212,-7.791052208181391,0.3887047794230145,0.6611328125,0.605224609375,-0.258544921875
7093,2.408,0.936712028496693,0.035225548024647335,-0.057021781125867324,-0.3436251633876768,-23.234260248105382,-13.76701021572609,12.314337050876247,8.76327429828627,-7.962512258375812,0.749682112919244,0.631591796875,0.569091796875,-0.329833984375
7094,2.417,0.9340289239858726,0.05633777570106348,-0.10113108519169804,-0.3379179305612521,-24.185236003180908,-13.657373458076052,11.636396952202324,8.492143917348852,-8.167994703243188,1.1446011146580086,0.60595703125,0.5263671875,-0.38916015625
7095,2.425,0.9293514261858318,0.07771743625642538,-0.14499001761814162,-0.33052053119160285,-24.20925142356296,-13.643432154166996,10.690091743152827,8.600380410346512,-8.116165714703168,1.351917038176682,0.565673828125,0.4833984375,-0.4619140625
7096,2.433,0.922698707161012,0.0994232976188529,-0.18793319839968572,-0.32159480193755363,-23.87510342020375,-14.018921852753863,8.629702182863804,8.690009017932924,-7.925744434471435,1.507776873397119,0.54248046875,0.4384765625,-0.521484375
7097,2.442,0.9141568096100924,0.12141270437509338,-0.22965179784668355,-0.3111853698450645,-23.297879803583868,-14.090819280257644,6.448407838586441,8.772638091993722,-7.685907194459685,1.6489352756351419,0.50048828125,0.383056640625,-0.577880859375
7098,2.450,0.9040366354551226,0.14327125881340264,-0.2693332722529149,-0.2994172617110473,-22.615727854210288,-14.238820017784128,4.3674271959481015,8.710103633916026,-7.292280696946369,1.776653790650033,0.46728515625,0.321533203125,-0.613037109375
7099,2.458,0.8926690904596887,0.1643561246090761,-0.3068810442512633,-0.28627431585912955,-21.235699991470042,-13.965154010281955,3.121058343604639,8.524438501755393,-6.924282677933246,1.9630857494140592,0.43994140625,0.278564453125,-0.648193359375
7100,2.467,0.8802011318522341,0.1842085870847582,-0.3427358343092623,-0.271744938886849,-19.80840308345742,-13.936111373679044,2.153810442964015,8.285336663052254,-6.66609997676713,2.207444553924035,0.396484375,0.218505859375,-0.685791015625
7101,2.475,0.8667689527191711,0.20281604848801638,-0.3768390255425291,-0.2560655812599091,-18.237236659864998,-14.281359006181775,1.1886453603681788,8.050440962276081,-6.413895211688683,2.4144675796394903,0.362548828125,0.15478515625,-0.710205078125
7102,2.483,0.8523303369013515,0.22027586172968847,-0.4094582522443448,-0.23949004406421115,-16.809563720861735,-14.705079728592066,-0.06404170732667676,7.845016747964372,-6.214622654360779,2.56863962974957,0.3330078125,0.099365234375,-0.723876953125
7103,2.492,0.8368490379528022,0.23649159878063558,-0.4408454870157748,-0.22228510512734026,-15.019872121573004,-14.962993429092508,-1.1411842698573942,7.642865351470162,-6.112890887408073,2.697306153603966,0.287109375,0.049072265625,-0.73046875
7104,2.500,0.8202970174659814,0.25142770531212355,-0.4711928666659636,-0.20463185123779443,-13.360043955737812,-15.25990419479109,-2.1970151809383918,7.432137019029939,-6.050387897984479,2.8038871542832684,0.2451171875,-0.001953125,-0.737548828125
7105,2.508,0.8028522677508851,0.26514367355999113,-0.5002440640016912,-0.1867697646018905,-12.125517947429321,-15.452236675522217,-3.461495269542489,7.212496392219982,-5.953697487049902,2.8639921013309726,0.20703125,-0.064208984375,-0.731201171875
7106,2.517,0.7845414134465721,0.2779336302578702,-0.5279328476200442,-0.16892180487647923,-10.747198161971808,-15.62798245852472,-4.957894415305992,7.0193858539179015,-5.8271524307970495,2.843799407820209,0.16796875,-0.10498046875,-0.738525390625
7107,2.525,0.7654511374281333,0.290289622533332,-0.5539687109954632,-0.15144358189589233,-9.464300113001677,-15.897187052786196,-6.819764778533117,6.882665765785058,-5.667119113129341,2.6902866384394253,0.129150390625,-0.14990234375,-0.728515625
7108,2.533,0.7455485724857478,0.30351557816885033,-0.5779583136525464,-0.1341633614411822,-8.364004545036636,-16.89623418250771,-9.44978850633995,6.991349581566531,-5.370946997242907,2.3630054374012426,0.092041015625,-0.187255859375,-0.712646484375
7109,2.542,0.7248115704448678,0.3184871947840293,-0.5995814379744936,-0.11711615321672247,-7.045446243334968,-18.464457768260083,-12.742990109843996,7.262571025348784,-5.033441944500601,1.8824229778069677,0.064697265625,-0.242431640625,-0.697265625
7110,2.550,0.7026859489387457,0.33501012597985697,-0.6196328956877276,-0.10027834879302938,-6.481716952300233,-20.99162298664617,-17.753468472399017,7.557798532056877,-4.92273776850726,1.4608788716651875,0.02880859375,-0.28076171875,-0.678955078125
7111,2.558,0.679010597827458,0.3516247738517893,-0.6388576017532032,-0.08464981472999232,-5.801375258524965,-24.403315557433306,-26.192697027218784,7.503566424557734,-5.116576997956837,1.1410443292243244,-0.007568359375,-0.317138671875,-0.659912109375
7112,2.567,0.6551794615747867,0.3645080320024572,-0.6575121352790578,-0.07450878939455637,-6.666200563541856,-27.795565816966036,-38.60470717564903,6.049618042010893,-5.578574588357387,0.7659095155419036,-0.04736328125,-0.347900390625,-0.62939453125
7113,2.575,0.6352052781748481,0.36993734053157196,-0.6738617549007437,-0.07463882328475083,-8.717461623986948,-28.791276115908264,-53.54628923775945,2.8798499627640353,-5.642879508955117,0.1936995076944555,-0.075927734375,-0.3671875,-0.61962890625
7114,2.583,0.6253392493333879,0.36436065373367665,-0.684615546417792,-0.08656610686054397,-12.110992189079813,-23.227499512188107,-67.0806868838506,-1.7066808469007575,-4.395243109791163,-0.13998897203898258,-0.095947265625,-0.34814453125,-0.61962890625
7115,2.592,0.6319339717667811,0.3458010307450139,-0.6851667832417723,-0.1078312645055677,-17.517411957404285,-19.008758473432156,-75.00458458979334,-6.844435037181558,-1.2425120348345577,0.039088517859950364,-0.102294921875,-0.3115234375,-0.6474609375
7116,2.600,0.657584766398469,0.31697755097039954,-0.6701939490748172,-0.13396857021324204,-20.439376066415665,-23.123668941387024,-72.80266446805169,-11.186322047038008,3.5740657021133235,0.19530488560061698,-0.089599609375,-0.244873046875,-0.678466796875
7117,2.608,0.6972180802877989,0.28099092025048594,-0.6389508592890161,-0.16331824965511374,-19.23584042117179,-34.23856462021589,-58.30226230466073,-14.435946783240588,7.933058408032973,0.05036871773304779,-0.03955078125,-0.160400390625,-0.721923828125
7118,2.617,0.743090859649415,0.23914417870568044,-0.5930992528800495,-0.19712765490870704,-20.379575214276613,-47.159017313802316,-42.23906910513627,-17.093980335318548,10.798384980983597,-0.5366188833030758,0.039306640625,-0.049560546875,-0.752685546875
7119,2.625,0.7901850912371048,0.19507538666282032,-0.531786219292851,-0.23400113691000626,-23.595433274559344,-56.54921269485268,-28.16612457540884,-18.74888985800191,13.474750507207071,-1.600340358809488,0.120849609375,0.079833984375,-0.766357421875
7120,2.633,0.8347587790791879,0.1533201458134484,-0.4546389775502367,-0.27013721278276653,-29.59287129572073,-61.591775198450414,-16.171523375695458,-18.980932057848236,16.31141117277724,-2.6389020317431733,0.2294921875,0.2109375,-0.737060546875
7121,2.642,0.8728831653239922,0.11638303286141219,-0.36416811860550424,-0.30316917842563623,-34.41948465988553,-64.03846870390305,-6.1190248252204436,-18.31611085965975,18.730799634038718,-3.456454884781743,0.336181640625,0.332763671875,-0.67919921875
7122,2.650,0.9009450233484999,0.08518027406975809,-0.26499419828666737,-0.3328970722120852,-36.736198496777405,-65.15243379742648,3.217619024623173,-17.166500043660957,20.168947702889128,-4.2393781621328115,0.44091796875,0.443115234375,-0.5859375
7123,2.658,0.9164385402991226,0.059863249491334654,-0.16411050658957768,-0.36003407455637276,-37.09718964703937,-66.42481286395551,12.54441776409989,-15.607736221033496,20.276833959442264,-5.0970665523301415,0.523193359375,0.544677734375,-0.468994140625
7124,2.667,0.9191713283211416,0.03843419600045715,-0.06885364803237022,-0.3858834758353633,-35.473453471746154,-65.19699162373225,24.92879503284986,-14.021480744050397,18.866923531037017,-5.985675325454493,0.57373046875,0.62744140625,-0.3388671875
7125,2.675,0.9118091698349378,0.013185688643199456,0.012863427840340176,-0.41020081380236534,-35.72050790993988,-59.408875600288255,42.591247460507056,-13.480855371736537,15.37356355217226,-6.393793600178492,0.5908203125,0.709716796875,-0.216064453125
7126,2.683,0.8987194463961545,-0.015105053571158104,0.07940269964429598,-0.43101091090040833,-37.60825385404659,-47.93607395604982,58.691415605895244,-12.644319916370282,11.76079651898166,-6.148120035216273,0.581787109375,0.789794921875,-0.09326171875
7127,2.692,0.8833514806814292,-0.04140733913059699,0.13195809212278387,-0.44784222195698026,-36.96685288194257,-36.22775443605276,70.56768586183996,-10.836301799809869,8.981117739639165,-5.533167230012888,0.54736328125,0.83251953125,0.0205078125
7128,2.700,0.8683672977767708,-0.06488209252620697,0.17029489895228417,-0.46122467151283325,-33.14289832934863,-27.58802369620473,75.79614611264223,-8.821964480676476,6.213413957910776,-4.813692043663776,0.5234375,0.873291015625,0.1181640625
7129,2.708,0.8552436013617883,-0.08719767664698808,0.19544621389161432,-0.47197004671114323,-30.24088008152801,-20.815814035430215,74.11683046184206,-7.184637480323659,3.4798140455441136,-4.210261816588872,0.481201171875,0.890869140625,0.194580078125
7130,2.717,0.8449264506297601,-0.10849777694505588,0.21012138878967776,-0.47976715956521365,-29.17910230386203,-14.305236279284935,69.19880382691788,-5.8813545700622605,1.245686026077814,-3.4631863623081087,0.45849609375,0.8984375,0.25634765625
7131,2.725,0.8373050826957184,-0.12719801409878134,0.21819249325134976,-0.48490504182778105,-28.935279789852085,-9.30348997068234,63.64859996188542,-4.645667168980751,0.0041347601815528035,-2.6494016577126587,0.4296875,0.8916015625,0.295166015625
7132,2.733,0.831165197331156,-0.14089819266355122,0.22349358094215407,-0.4892471086549804,-27.194610886585927,-5.3520056814952826,57.503684903235786,-3.326268254111413,-0.07613685973612887,-2.1444054101529804,0.415771484375,0.89794921875,0.330810546875
7133,2.742,0.8257141599663663,-0.14894028185693842,0.22843132553799733,-0.4937935276857802,-24.81474261938413,-1.8988899092458127,51.50852573214744,-2.112140770739129,0.4879691255779919,-1.8096651579405665,0.390869140625,0.885009765625,0.3427734375
7134,2.750,0.8210573990278488,-0.15194794554496646,0.23336016007305657,-0.498316771779724,-21.934979647630147,0.13428085591972103,46.18675201466261,-1.0946823232522007,1.0362233802210372,-1.4385926444560424,0.373291015625,0.89453125,0.36767578125
7135,2.758,0.8172822264703181,-0.15090604909607538,0.23796906425218675,-0.5026408768702273,-18.39119439520115,0.7982239174303736,41.17752115290083,-0.23254414354941644,1.401832674151121,-1.0769349464408835,0.368896484375,0.89599609375,0.3623046875
7136,2.767,0.8144696142037922,-0.14696656665424546,0.24141129326275307,-0.5067155645031978,-14.399227180399295,0.7818878425846969,36.62393878329894,0.4922875118972496,1.4575526141069952,-0.7904968690018722,0.361572265625,0.891845703125,0.37060546875
7137,2.775,0.8129226553653504,-0.14182615192604967,0.24283049593281567,-0.5099759300875089,-10.798988867402834,0.6750722509072237,32.33291508841531,0.9723054417674708,1.1063768140728074,-0.478519423903126,0.355712890625,0.896484375,0.357421875
7138,2.783,0.8126910001799846,-0.13622916064830629,0.2421550066711439,-0.5121873746585445,-7.805456014045326,0.06385448072316888,28.421567519895305,1.2996229799942796,0.6409383406454082,-0.1582297956549813,0.35791015625,0.901123046875,0.35595703125
7139,2.792,0.8134448500688831,-0.13023380767856926,0.23974251331870186,-0.5136829358092263,-5.224862778626128,-0.9883558560783674,25.046020045558762,1.580891017878426,0.2706537736871635,0.0688675981018762,0.357177734375,0.894775390625,0.33837890625
7140,2.800,0.8148742697940857,-0.12387585679460451,0.23575200698663534,-0.5148355929155751,-3.154087708695828,-1.7755018763755002,22.177683085076445,1.848187341137544,-0.04253023225241309,0.1906782755611826,0.3525390625,0.90673828125,0.318603515625
7141,2.808,0.8166946153800227,-0.11714566827098438,0.23036000177770483,-0.5159661492729899,-1.9051522402226284,-2.3696474055815973,19.602610360842753,2.102436739056426,-0.29280453902183967,0.22242037062620357,0.354248046875,0.9072265625,0.307861328125
7142,2.817,0.8187286245436826,-0.10991332330527423,0.2237954815214894,-0.5172215029978594,-1.1567068214858462,-2.6582400799446972,17.340347992141037,2.3610764607487322,-0.46935240551733975,0.21949432243461228,0.35595703125,0.90966796875,0.28173828125
7143,2.825,0.8208621139807047,-0.10219662993767142,0.21624845380315488,-0.5186307404003895,-0.6115907344956869,-2.896346529820797,15.136644477031666,2.5861090677641063,-0.6024423692133787,0.20142070436960974,0.36474609375,0.917724609375,0.24853515625
7144,2.833,0.8230110255300165,-0.0943083469105877,0.20792994544001825,-0.5201191453391558,-0.4063842022137205,-2.9769481782771496,13.17294830787103,2.7234412090123263,-0.7330668650232393,0.17800946693381256,0.364990234375,0.917236328125,0.23583984375
7145,2.842,0.8251908008612997,-0.08645730299476136,0.19896346156497666,-0.521535059123393,-0.4685360969327264,-2.9860123456726146,11.655529996171426,2.79060524983504,-0.8672730520314084,0.17944366050102592,0.3779296875,0.917236328125,0.197509765625
7146,2.850,0.8274584773229107,-0.07879888998614117,0.18950810733835863,-0.5226756934241686,-0.9776622077547535,-2.8886743268673856,10.693592277156851,2.805782402713561,-0.9997344102829948,0.22583596838496667,0.373291015625,0.922119140625,0.18115234375
7147,2.858,0.8298625494349209,-0.07128179467922559,0.1796588449116662,-0.5234212015553904,-1.6663078943162397,-2.6539605454228274,9.979899840716422,2.808121056746006,-1.1074314580358784,0.3073777603680152,0.376708984375,0.9189453125,0.157470703125
7148,2.867,0.8323943073728203,-0.06375655253993937,0.16973463215766954,-0.5236840399590633,-2.5913807256672445,-2.4623189992254755,9.346186890476622,2.8041529640862177,-1.1370359167593724,0.41878340211957216,0.38720703125,0.92431640625,0.119140625
7149,2.875,0.8348959655143309,-0.05594743762678366,0.16020882123528163,-0.5235950196375938,-3.5414864223301996,-2.217132238573679,8.854201946723077,2.7923223370511394,-1.0239564137727437,0.502758215127408,0.39404296875,0.9169921875,0.107421875
7150,2.883,0.8373101983025726,-0.04765165536114716,0.1512995210445228,-0.5232106712324847,-4.272719400339016,-1.650727766482007,8.747703995212554,2.803507478662215,-0.8418304928697594,0.5781372635109631,0.397216796875,0.914306640625,0.073486328125
7151,2.892,0.8396720998364996,-0.03886651071891124,0.1429646864879244,-0.5224952224835263,-4.466470522550313,-1.4063052766725377,8.347106548251016,2.8133872851806987,-0.6651637512721639,0.6621144117833141,0.411865234375,0.913330078125,0.04638671875
7152,2.900,0.8420804532381145,-0.029879400907958382,0.13493649261722193,-0.521344295677852,-4.449476934680805,-1.2715322678164223,8.243894877038768,2.8048281506555752,-0.5853542646016658,0.7658193441974966,0.412109375,0.90234375,0.027587890625
7153,2.908,0.8446819470986964,-0.02119770772475072,0.12679347915589892,-0.5196022315928919,-4.72990104459784,-1.00075880137435,8.178450452715332,2.7359718338660075,-0.6560442164688975,0.8982743660086658,0.413818359375,0.901123046875,-0.009033203125
7154,2.917,0.847573328582722,-0.013063488660270383,0.11835333383188304,-0.517147257858056,-4.940332413674586,-0.5695817915234105,8.331312381978249,2.64555544922443,-0.7982294369479286,1.0612496445157247,0.42236328125,0.895263671875,-0.02978515625
7155,2.925,0.8507205007309168,-0.005442062947070682,0.1093436024034336,-0.5140904494351729,-4.868094363740189,-0.3432119673575159,8.291111256490264,2.591846822034762,-0.9861749420821486,1.198508339988096,0.43017578125,0.876953125,-0.046875
7156,2.933,0.8542053106026533,0.0011117890915830768,0.09961130630479949,-0.5103034772755248,-4.6389614363020435,-0.13707066602720405,8.722588838256502,2.448106960218456,-1.2759673979292647,1.3608582438595878,0.443359375,0.8720703125,-0.07421875
7157,2.942,0.8580457219533869,0.00599352446812807,0.08873185477813557,-0.5058144666274117,-4.107739215586533,-0.042421702391108214,9.264982154941231,2.2250157534289325,-1.724028108754079,1.5080871773229605,0.451904296875,0.867919921875,-0.102783203125
7158,2.950,0.8622549119700842,0.00915650773554711,0.0763731327712008,-0.5005994104473792,-3.3326741661144164,-0.08701061197064754,9.787081842175606,2.038568505866526,-2.2443758002472967,1.6684952111934779,0.471435546875,0.854248046875,-0.122314453125
7159,2.958,0.8667878284764081,0.010687784414013602,0.06229409858558538,-0.4946555134140147,-2.855690682164521,0.0277627667547211,10.188569077797357,1.8895120432193278,-2.8008495990146534,1.8316261690601647,0.471435546875,0.842041015625,-0.153076171875
7160,2.967,0.8715802793982487,0.010803744256429285,0.046877417928266746,-0.48788687557925925,-2.4287716495100273,0.33353949765901997,9.870026238269464,1.744912604630767,-3.248895763407792,2.0167861255951793,0.484619140625,0.828369140625,-0.17529296875
7161,2.975,0.8765569619200251,0.01032874726083002,0.030008163537784963,-0.4802506841334504,-0.913903102299965,0.7646164699821817,9.890368676138506,1.7770520608623954,-3.622007780332197,2.2167048495454025,0.491943359375,0.81005859375,-0.1953125
7162,2.983,0.8818637449519492,0.008745523243648304,0.01153044718608219,-0.47128218717686254,-1.801253927452322,0.5519126102733845,9.770007067504647,1.7230215432860134,-4.087093604516771,2.531373522801277,0.491455078125,0.8017578125,-0.2236328125
7163,2.992,0.8868924050611253,0.0036332965908886148,-0.005982705403450825,-0.4619230111575204,-2.232534300540108,0.5197143383214331,8.979802056900033,0.8622268862078963,-4.280676876354474,2.5708115848816457,0.503662109375,0.786865234375,-0.248046875
7164,3.000,0.8914409548936066,-0.001188076447354709,-0.02313259498589631,-0.4525444679387303,-0.79269094776562,0.3981787664661089,8.119094892998596,0.8885378106391654,-4.171607988034837,2.5209617720702626,0.5078125,0.75341796875,-0.2705078125
7165,3.008,0.8952605577119838,-0.003708658287669467,-0.03958553181180551,-0.4437654395399778,-0.1855894053597456,-0.029994438525831748,7.805866816268711,1.2973090697160485,-3.7766782358983733,2.301210157366749,0.504638671875,0.75439453125,-0.29443359375
7166,3.017,0.898530340073095,-0.004789799805151135,-0.05529190217962966,-0.435388437305486,0.018024193391922506,0.2784625316740912,7.680822759428829,1.5270312253096436,-3.4675280758068556,2.1429409638261414,0.5166015625,0.738037109375,-0.309326171875
7167,3.025,0.9013779920578687,-0.005315457625857138,-0.07025015046690553,-0.42726382681351527,0.32029609834645867,0.5144537928729842,7.358016393230088,1.5606198999761383,-3.253652331577462,2.0384210916799765,0.51318359375,0.723388671875,-0.338623046875
7168,3.033,0.9039927671203293,-0.005661354933199431,-0.08463849557170096,-0.4190481489301792,0.9065172484450221,0.6742497029549477,7.093975568760413,1.546486761712553,-3.1157427416791412,2.0313871548124096,0.517578125,0.6982421875,-0.353759765625
7169,3.042,0.9063009618478506,-0.006015138873082341,-0.09885156353422422,-0.4108658577258977,0.6137678485071991,0.6013753439308854,6.6824845928395575,1.521886875193274,-3.0848046239427482,1.9944754117508843,0.51806640625,0.686767578125,-0.3759765625
7170,3.050,0.9080444693369676,-0.006434033373970122,-0.112545669536369,-0.4034195300053012,0.7043727558257784,0.40814746401918056,6.307197372680027,1.4424281829304042,-2.990541135951617,1.780216740851999,0.51220703125,0.678466796875,-0.384033203125
7171,3.058,0.9092592511552408,-0.006899470960392619,-0.12536163123654168,-0.3968431338738151,1.1410234907595314,0.335573436012055,5.543228024050313,1.3188397542424475,-2.816665213753509,1.543012648145897,0.51220703125,0.655029296875,-0.408447265625
7172,3.067,0.910126956473347,-0.0073777355066191085,-0.1376628166701065,-0.39072169254574196,1.8282656194173064,0.5385813426633124,4.751898546449029,1.2568384785076097,-2.715149259445388,1.4109258187144773,0.50439453125,0.636962890625,-0.419677734375
7173,3.075,0.9107683881684234,-0.008174837628825603,-0.14923369399854153,-0.38492001730019676,1.9653760657733002,0.841455118645312,4.7185418621714454,1.1037277323429202,-2.5923374159450585,1.3328273432019768,0.504150390625,0.62744140625,-0.434814453125
7174,3.083,0.9112869407751027,-0.00936240005178453,-0.1599564834631565,-0.3793183101777791,2.0272742518723925,0.955467853432918,4.4664338580657565,0.9366305229299822,-2.44711128937223,1.2922623215585005,0.4951171875,0.621826171875,-0.452880859375
7175,3.092,0.9116831522052646,-0.01059859799692308,-0.1696981168160127,-0.37406423092120256,2.053931522067876,1.0675613266179003,4.517440663283526,0.8190472296546889,-2.240541207031206,1.2104672161676768,0.49658203125,0.614013671875,-0.4609375
7176,3.100,0.9120470935299964,-0.012083779059720287,-0.17793402286248897,-0.36927437627744136,2.1000164965865014,1.0939805390612563,4.520210022789671,0.61439426927373,-1.93386342932647,1.1186520086377327,0.487060546875,0.6044921875,-0.464599609375
7177,3.108,0.9124738572636015,-0.013495671085331116,-0.1849142634279949,-0.36471364363473335,2.138518882677287,1.0778565197629058,4.140379114677096,0.5055283442687554,-1.6486541783686826,1.0760201043069246,0.493408203125,0.589599609375,-0.476806640625
7178,3.117,0.9130711062716804,-0.014934161094803104,-0.19094555443421452,-0.3600248893701861,2.0183377553863404,1.3399096642938266,4.453179899605938,0.4268908826495993,-1.4365139405245206,1.1217854374023573,0.488037109375,0.58544921875,-0.478759765625
7179,3.125,0.91378444514352,-0.015994319397239963,-0.19600717380100832,-0.35541997324195135,1.7945771678188767,1.1333088245111613,4.185427624508706,0.4185171594196814,-1.1850355620170487,1.101144577094445,0.49267578125,0.575439453125,-0.491455078125
7180,3.133,0.9146381503952522,-0.016470704338159777,-0.20001785551789011,-0.35093963471540396,1.6971197453086038,1.1531790726197206,4.434598822903412,0.4556434906997626,-0.898346366769821,1.060802085875306,0.49462890625,0.568603515625,-0.494873046875
7181,3.142,0.9156988512646088,-0.01657261998987876,-0.20252627381336488,-0.34670458675163324,1.9795931059553893,1.202831870084388,4.6539390185155565,0.39624154055327276,-0.5253754684248007,1.014005880350793,0.497802734375,0.567626953125,-0.50048828125
7182,3.150,0.9169966397477751,-0.016407251458749612,-0.20373918377074163,-0.34254679941183297,2.442431903955861,0.9781636158141912,4.820827040591525,0.3484871456140713,-0.20734611773311032,1.007260583547402,0.50390625,0.5537109375,-0.510986328125
7183,3.158,0.9184236887707273,-0.015763980117784283,-0.20433040147293244,-0.33837628739249187,2.51516233129237,0.6679072135540622,4.8710308293619455,0.399523394269582,-0.024090871280774778,1.0014560630134746,0.507080078125,0.539306640625,-0.500244140625
7184,3.167,0.9199080937801487,-0.014729121194017874,-0.20442979645526185,-0.3343061625335153,2.5876449266394066,0.42373330592959885,4.59489655876041,0.4453524067730611,0.11843772712695375,0.9649552514898858,0.502685546875,0.535400390625,-0.5068359375
7185,3.175,0.9214333467058474,-0.013674543224814224,-0.20396236378510643,-0.3304132996797292,2.6888372046652247,0.1295591608915147,4.214992239018821,0.3915594429088325,0.24884358490611147,0.931780802435639,0.51220703125,0.533203125,-0.52001953125
7186,3.183,0.9229778287155338,-0.012866649815003229,-0.20287094286993249,-0.32678702171469676,2.5437993047471084,-0.04280634591670824,3.7248222773474593,0.27865302420880256,0.3680398747159794,0.8868272179419228,0.5234375,0.518798828125,-0.51171875
7187,3.192,0.9245180452969295,-0.01252204630224511,-0.2012542449206095,-0.3234289893905375,2.5205615322480597,0.015530879497627121,3.412515528771845,0.11775988884293326,0.4499698160281192,0.852802851373064,0.530517578125,0.508544921875,-0.521728515625
7188,3.200,0.926123077247747,-0.013117253319346073,-0.19931431918047607,-0.3199965400190182,2.911200573536563,0.3185692718235308,3.225404808485287,-0.10807423440301041,0.45035743357470687,0.9191601244235426,0.54248046875,0.506591796875,-0.5185546875
7189,3.208,0.9278449513114279,-0.014506728253610036,-0.19727435065488697,-0.31619002472399804,3.470885685391602,0.12993387220444744,3.052737533406238,-0.27795304687157524,0.4176006693516963,1.051055882202763,0.5380859375,0.5048828125,-0.5126953125
7190,3.217,0.9297300176753603,-0.016497084862486126,-0.19512908109425098,-0.31185666921797156,3.984495868316616,-0.338346630536325,3.1774323181780706,-0.39032421897803027,0.3997497167344242,1.2081075185861239,0.557373046875,0.498291015625,-0.5107421875
7191,3.225,0.9316199890226895,-0.018903774774111804,-0.19304417226022716,-0.30734474277107404,4.277889012729396,-1.3413597262178452,4.012359235481769,-0.47409768523872076,0.35676890444372533,1.2689437300806896,0.57080078125,0.490966796875,-0.511474609375
7192,3.233,0.9333965501596097,-0.021560869231270645,-0.19078179300425274,-0.3031638443584816,4.697174186998901,-2.1702970117281897,5.020126065100018,-0.5552536741484713,0.372100417234244,1.1976056900482819,0.565185546875,0.486572265625,-0.520751953125
7193,3.242,0.9350754743035234,-0.02342161706808917,-0.18793163679920807,-0.29961139013716925,4.989979953679281,-2.691425687147069,6.039676367005921,-0.4521900319155244,0.5631883843897353,1.017433841424146,0.585693359375,0.48095703125,-0.523681640625
7194,3.250,0.9366468886470595,-0.023888269285045245,-0.18422899581559254,-0.2969539251788505,4.910279275906688,-2.806949818584727,7.391116127466348,-0.23831494718627122,0.8522354079085234,0.7496264996224136,0.592529296875,0.474365234375,-0.525146484375
7195,3.258,0.9379955240095008,-0.02331382181161281,-0.17995971671357652,-0.2953563322684098,4.527912611850465,-2.6924549787676395,8.77784033087477,-0.09539617285785143,1.0532049841629814,0.45352488631555954,0.603271484375,0.474609375,-0.530029296875
7196,3.267,0.939050551589546,-0.022455491526518857,-0.1753815269634514,-0.2948239007605043,4.219356525303312,-2.642654181216615,9.471890080068922,-0.0984406607084469,1.1329820615284631,0.18157622972528284,0.613525390625,0.4677734375,-0.533447265625
7197,3.275,0.9398703014058322,-0.02224323308905223,-0.17047740269121814,-0.29510423631102356,3.9865665226455813,-2.453541230422727,9.528827511846632,-0.3045038214924717,1.1585458258758257,0.011217549700785555,0.61181640625,0.474609375,-0.5380859375
7198,3.283,0.9406257676306865,-0.02279315317271266,-0.16500761233644176,-0.2957636308078694,3.4923258613410217,-2.328050502157462,9.119224857766403,-0.5304299194934647,1.2282119005438272,-0.045149563916568734,0.6259765625,0.473876953125,-0.539794921875
7199,3.292,0.9413769273512854,-0.023503984999601157,-0.15891286003465666,-0.29665425372880894,2.884320102766805,-2.4725090726559236,8.77356777663439,-0.6216023450049507,1.362381626239265,-0.08758043938217001,0.6318359375,0.47119140625,-0.546875
7200,3.300,0.9420652573124753,-0.02400634964522592,-0.1521839886665904,-0.2979543249141019,2.4183873835522154,-2.6671437426448406,8.88348797846238,-0.6343192432210303,1.516997627535275,-0.18921905123969684,0.63427734375,0.4814453125,-0.55224609375
7201,3.308,0.9425795521104151,-0.024211449885008975,-0.14477029944997843,-0.29999859005495105,2.4976449898698476,-2.8980789039111197,9.59803931749425,-0.6449407442752517,1.6943559029448039,-0.37675148375176637,0.635009765625,0.48828125,-0.555419921875
7202,3.317,0.9428863238367905,-0.024312566911043026,-0.1369345095055001,-0.30269327630164977,2.7314492410203037,-3.001549875430968,10.508360050756108,-0.6749389728290818,1.7905718065287375,-0.5400790065211851,0.64990234375,0.51123046875,-0.560791015625
7203,3.325,0.9429200573328641,-0.024019619999256496,-0.12943196577256333,-0.3058957168231184,2.7632506002592874,-2.7558998721179564,11.685474976244132,-0.5798136211181347,1.7410024670608264,-0.6898138512803875,0.658935546875,0.515625,-0.558349609375
7204,3.333,0.9425537134297877,-0.0236624228425974,-0.12271166969728495,-0.30979740664673133,3.0547094821199354,-2.7409272875958783,13.343781746954923,-0.5318928467767803,1.5570694472352138,-0.8838308493245364,0.649169921875,0.53369140625,-0.5625
7205,3.342,0.9417349564179254,-0.02401199342069148,-0.11687706656129555,-0.3144812352820427,3.3719471703699884,-2.6897055277162183,13.946881836504327,-0.6267294787292574,1.304029394371592,-1.0007412478911546,0.652587890625,0.535400390625,-0.566162109375
7206,3.350,0.9407469445578663,-0.02459912698228492,-0.11229193600794508,-0.31903070442253006,3.3181239387535624,-2.586859281499975,13.983264902486829,-0.6081182721271815,0.9894208679435347,-1.0615558546039265,0.64892578125,0.550537109375,-0.57470703125
7207,3.358,0.9394526267829145,-0.02584798064864185,-0.1090304063474245,-0.3238410326360523,2.7469480574276606,-2.5449802879608003,14.045184416364261,-0.6390925852506355,0.6421589614268501,-1.0506174313164032,0.642822265625,0.56591796875,-0.57568359375
7208,3.367,0.9381459892838435,-0.028148979417912317,-0.10694162194365592,-0.328105512365197,1.9543132697986985,-2.312315200068832,14.046111011230048,-0.7968852340950889,0.28329197055142824,-0.991512744040212,0.6318359375,0.577392578125,-0.58203125
7209,3.375,0.9365762810130792,-0.031845954753625824,-0.10580082349307336,-0.33259117660835147,1.06521901444028,-1.8993946718783135,13.764446897497653,-1.0094281318339378,-0.03520260840071085,-0.9206856388890909,0.621826171875,0.594482421875,-0.58154296875
7210,3.383,0.9350973782617339,-0.03601154137352449,-0.10507866439416236,-0.336533113296558,0.6410314430103115,-1.6865731502883006,13.34116763659726,-1.1014203070220248,-0.17869507586142186,-0.8944389777537568,0.622802734375,0.61279296875,-0.58447265625
7211,3.392,0.9333905806117874,-0.039886987968196744,-0.10444921184235627,-0.34100060756767875,0.5213920480599077,-1.3561801290303137,13.2144044404446,-1.0006081579107804,-0.16743020403176095,-0.8994402717548164,0.61572265625,0.62744140625,-0.59228515625
7212,3.400,0.9319414748111536,-0.04269858612302325,-0.10364282550554546,-0.3448479128414925,0.6187907924846271,-1.0961118295847354,13.222364467315632,-0.8021888495868031,-0.0500468210767727,-0.9038639479281668,0.597900390625,0.63427734375,-0.586669921875
7213,3.408,0.9302483835311666,-0.04455920529043478,-0.10253933060535594,-0.34948262881085007,0.7298968348971024,-1.154547199702398,13.243179437503903,-0.587229109891645,0.10624494713424006,-0.9644435640997933,0.61083984375,0.648681640625,-0.601318359375
7214,3.417,0.9286969194646371,-0.04514171890949941,-0.10134897306308348,-0.3538539849285969,1.0782639850573728,-1.3766396305170214,13.339234762440194,-0.3501020724302422,0.22437786374227547,-1.080632416981535,0.5908203125,0.65234375,-0.61083984375
7215,3.425,0.9270233635831906,-0.044625474993833326,-0.09990344809762772,-0.3586858673138478,1.5076142108542039,-1.358988391410575,13.351830912121425,-0.13677779301438386,0.3780600538751611,-1.218303505610526,0.6025390625,0.660400390625,-0.605712890625
7216,3.433,0.9252457395048592,-0.04335297490492796,-0.09789769973367875,-0.36394626180502687,1.7603378135451277,-1.251392082427805,13.070491505333365,-0.030755846804199294,0.5684234200732995,-1.3340408458111437,0.59765625,0.676513671875,-0.616943359375
7217,3.442,0.9233894611319217,-0.041750925673985174,-0.09540352196134161,-0.3694684442184969,1.6856174401593642,-1.4344764021632406,12.343881782657618,-0.00435613372457167,0.7077743874674646,-1.402436795377427,0.593994140625,0.685302734375,-0.618408203125
7218,3.450,0.9214715787689195,-0.04000736120797843,-0.0928467204376234,-0.37505869817172244,1.5257631155964368,-1.5081822787483115,11.781677376818273,0.016424483062914417,0.7322448282936777,-1.4248677168796244,0.6015625,0.686279296875,-0.625244140625
7219,3.458,0.9196796586682346,-0.0383492227049213,-0.09041155279439089,-0.3801899705030568,1.299070076504802,-0.9484879749981959,11.634918493917317,0.02306559132867143,0.6971245343310036,-1.312053362047483,0.5947265625,0.687744140625,-0.62158203125
7220,3.467,0.9182147839619469,-0.03652367810436095,-0.08824358793659717,-0.3843965408787133,0.7457854011762858,-0.2117335696081883,11.543457256028377,0.10432487808679938,0.6509359047090658,-1.0834301391788943,0.6044921875,0.695556640625,-0.63037109375
7221,3.475,0.9170627880559522,-0.03453965467141934,-0.08629567732465208,-0.3877575416330442,0.16277214884097846,0.24396573677572872,11.707985587735573,0.18345869560988393,0.6170919576785013,-0.8742634255769669,0.615234375,0.71044921875,-0.6337890625
7222,3.483,0.915955368566358,-0.026421042653269482,-0.08346788111360422,-0.39161307961045794,0.02976767849870268,1.250149645132875,10.125457130712457,1.4386578884242345,1.3858718685780118,-1.0979788990935961,0.622314453125,0.701171875,-0.638671875
7223,3.492,0.9144581265362964,-0.004869842981090777,-0.07658550817396698,-0.39733773968602726,-1.8260214715829102,2.774169718454577,13.000852866570229,3.9739723236510818,3.544410948761163,-1.7896503817769864,0.63720703125,0.694091796875,-0.65234375
7224,3.500,0.913027681409241,0.012690725061628301,-0.07070286259913687,-0.40152273123468774,-1.719489236363243,1.2478315909512117,13.332237456695971,3.2186033610316125,2.943344627180806,-1.3724843623170868,0.65478515625,0.686767578125,-0.6533203125
7225,3.508,0.9115136902876322,0.02442210795031254,-0.06388033176765595,-0.40554365520217406,0.5576597501343002,2.043459470070104,19.04198814662789,1.8563891163382706,2.5860865053503206,-1.2488322853338856,0.669677734375,0.684814453125,-0.65478515625
7226,3.517,0.9097670626631315,0.02780407677015087,-0.050387143753209726,-0.41111064295716143,-1.8234110441043647,-0.5964734137826493,11.797406113648323,-0.6446223357278054,3.220606619013627,-1.520463736348709,0.69677734375,0.69580078125,-0.6318359375
7227,3.525,0.9079554149745966,0.029668237071637186,-0.03875330837542934,-0.41621501801031663,0.0568817720110831,0.6475718701561233,11.799669991429463,-0.7835717222185363,2.666187997279184,-1.395247215287399,0.700927734375,0.70361328125,-0.614013671875
7228,3.533,0.9061336187669733,0.030331980340097375,-0.0288769455656131,-0.4209132427516602,-0.28074653227392343,1.4200536066763165,12.02963192576427,-0.8687115764067018,2.16701049037,-1.2839080304517794,0.704833984375,0.71923828125,-0.595947265625
7229,3.542,0.9044607078623541,0.030715456670664856,-0.02093986667126996,-0.4249340073922441,-0.3273037252700354,1.6148161566032921,11.744060021589965,-0.727158824037323,1.7218656534045877,-1.1055120180603486,0.713623046875,0.732177734375,-0.585205078125
7230,3.550,0.9033723563854982,0.028784159395848753,-0.01447218860558517,-0.427645195978338,-0.4782288218842591,2.376443909115344,13.483642157923743,-1.0804789454313926,1.180445311057787,-0.7391083818858394,0.716064453125,0.742919921875,-0.576416015625
7231,3.558,0.9033616568259972,0.023869497507586154,-0.01154176518636223,-0.42805928528850695,0.28741985887864807,1.0590839657247484,10.530436935925007,-1.3610137741874837,0.1258004893924639,-0.09565518109968935,0.718505859375,0.7451171875,-0.5615234375
7232,3.567,0.90368277021489,0.020694254436371257,-0.009843652329847546,-0.4275889394720989,-0.33469975624025183,0.6442002387365683,10.638418666323673,-0.8594455842201477,0.04444982345331652,0.13241546832649204,0.726806640625,0.7548828125,-0.551513671875
7233,3.575,0.9040690946549083,0.017830505185159426,-0.00800328514470995,-0.42693921417643205,-0.590854774729926,0.43263047802631655,10.593511607372358,-0.8037655088094483,0.10716741280519908,0.17656910876970128,0.724365234375,0.758056640625,-0.550537109375
7234,3.583,0.9045441291419091,0.01437367115422679,-0.005057429981406664,-0.4261076605911217,-0.6499477026945402,0.43529448576430546,10.850645840710836,-1.0483780493829997,0.2883571371448183,0.22152075763946147,0.72216796875,0.75830078125,-0.5341796875
7235,3.592,0.905098535729651,0.010260817513297726,-0.0007367722999165134,-0.42507742049017216,-0.32144884526259265,0.4439539275471375,10.843507980884397,-1.3288273240470003,0.5192016056870374,0.2688258624048532,0.740234375,0.765869140625,-0.538330078125
7236,3.600,0.9058642782034362,0.006184523742615832,0.004085398420349939,-0.4235032121020949,-0.3018161617259784,0.2509511684557592,10.468505956520413,-1.375074028214103,0.6345579090090764,0.40730801984882914,0.742919921875,0.7626953125,-0.5146484375
7237,3.608,0.9067859463751399,0.0027927495897183186,0.008001805759650798,-0.4215061317594989,-0.7523906650592405,0.3862888858618635,9.882976076478668,-1.1322926275036942,0.5063068913952329,0.5171064399352613,0.744140625,0.76416015625,-0.516357421875
7238,3.617,0.9071488421121024,-0.0012375477461051838,0.010290925343320588,-0.4206822358809873,-1.9141590321992437,0.10704414249679026,8.651826375032874,-1.1065467649203056,0.08923229124410437,0.20512505206635884,0.73974609375,0.774169921875,-0.510986328125
7239,3.625,0.906057269086857,-0.0021493272053142265,0.005060804273985403,-0.4231193611589191,-1.0531529684736254,0.5855290151651513,7.634009377588779,0.34166321084676604,-1.2301023702251794,-0.6462521925942994,0.73779296875,0.778076171875,-0.514892578125
7240,3.633,0.9053247349106459,-0.0037730255238145436,-0.0008713448562135054,-0.4247024009768567,0.8331338649489226,-2.855067166817258,14.402525007282932,0.2548306412833679,-1.4542464783458937,-0.42527672920864773,0.724365234375,0.78466796875,-0.517333984375
7241,3.642,0.9054710633088784,-0.005499715355958765,0.001260726246425888,-0.4243704952168851,1.3343133791010822,0.5587121745967386,10.39862939673913,-0.5855894205677526,0.28421142620196976,0.08764268349959867,0.730712890625,0.7763671875,-0.5224609375
7242,3.650,0.9055365133036252,-0.005858468067768935,0.0007405969594835325,-0.42422724210257445,1.2769103287790469,-0.18469654480434808,10.150705636031484,-0.020982381836390902,-0.15086885452067847,0.035385812124791215,0.718017578125,0.779052734375,-0.519287109375
7243,3.658,0.905452312116262,-0.005891790040803169,0.0014687142293756653,-0.424404571337236,-0.11457954271565984,-0.2569836086287634,10.833261200211558,-0.07485006555827735,0.152687048101308,-0.04777925614683814,0.726806640625,0.78466796875,-0.515380859375
7244,3.667,0.9054323887610612,-0.005894329284830194,0.0014696132965470812,-0.4244470361558427,-0.04540688500351202,-0.186471201605973,10.373662540665784,0.0033050391519766553,-0.0010866920839068283,-0.012872816387941799,0.731689453125,0.78466796875,-0.519287109375
7245,3.675,0.9054358566256562,-0.00590533899977115,0.0014596667594832607,-0.42443951969722726,0.02868373845217268,-0.0639655337839007,10.44096705134206,0.00525056191374668,-0.005743290441623925,0.0002843751889749368,0.72412109375,0.77978515625,-0.515380859375
7246,3.683,0.9054385864948216,-0.005911589015374401,0.0014672456331793697,-0.4244335830160295,0.024644174049495118,-0.09665367897239147,10.416281664729597,0.0018332263999001476,-8.960389644007509e-05,-3.9189612344575416e-05,0.72412109375,0.783447265625,-0.520263671875
7247,3.692,0.9054383286457481,-0.005915879666869315,0.0014702611765397822,-0.4244340628637553,0.02639235110317279,-0.0922067953296324,10.44524121779386,0.005364980552386728,-0.0022233376352411758,-0.0018113470216591379,0.728271484375,0.7822265625,-0.51513671875
7248,3.700,0.9054412573389895,-0.005912154204294157,0.0014639438081111168,-0.4244278888216246,0.024933382229477767,-0.09587295571702929,10.416288192529418,0.005416676712031226,-0.0020936026785466906,1.643638766967398e-05,0.722900390625,0.78564453125,-0.522705078125
7249,3.708,0.9054410225246298,-0.005923141035504814,0.0014704847786692224,-0.42442821395890007,0.029411183163583317,-0.06248524449064404,10.440973990136591,0.003531750400012134,-0.002133791128234858,-0.0017721171206766862,0.736083984375,0.78759765625,-0.52001953125
7250,3.717,0.905443974805651,-0.005926172889713737,0.001467748484843016,-0.42442188289178745,0.024300980887009924,-0.11990021269806041,10.449524783549375,0.003583471736436705,-0.0020039855537564194,5.5656566063244866e-05,0.731201171875,0.7783203125,-0.518310546875
7251,3.725,0.9054367808957772,-0.005930888972807201,0.0014868131445513733,-0.42443709751123054,0.05710780775419861,-0.06885546285131651,10.410770426928885,0.003594287616475299,0.0012561449727123276,-0.0056959187539936795,0.72412109375,0.782958984375,-0.5166015625
7252,3.733,0.9054397568629743,-0.005940677980331987,0.0014876580037673105,-0.4244306090643278,0.025363290065773963,-0.09463073934003564,10.416298513231608,0.0017502842454695028,-0.0019143604927292454,9.493791663385485e-05,0.722900390625,0.7822265625,-0.52001953125
7253,3.742,0.9054392270597899,-0.005934479696176459,0.0014936358092932681,-0.42443180501015204,-0.0036624306230472275,-0.0913849270777829,10.417552462102412,0.0072812466881429505,-0.00048805194692469456,-0.001984723350168363,0.726806640625,0.7841796875,-0.51318359375
7254,3.750,0.9054389703052335,-0.005944704875557609,0.0014940367529477218,-0.4244322082391044,0.02822285339625407,-0.0649864269791565,10.41202659306654,0.0016985752252187563,-0.0020442793634048544,-0.0017327612087848652,0.721923828125,0.778564453125,-0.518798828125
7255,3.758,0.905441719216285,-0.005951500461672033,0.0015075713563314518,-0.4244262008565432,0.056456838218182016,-0.09232640258007997,10.44401153337429,0.003666498173132326,-0.00017903596811378805,-7.850718816754398e-05,0.72412109375,0.778076171875,-0.523193359375
7256,3.767,0.905441439064061,-0.005954967979777313,0.0015043914226650435,-0.42442676115957845,0.025777967297354435,-0.09330276899382664,10.416309475351317,0.0035318312999227655,-0.0021338258846309555,-0.0017719798715447824,0.72607421875,0.775390625,-0.51171875
7257,3.775,0.9054409545162925,-0.005962144700384683,0.001517409213623851,-0.4244276477616357,0.02588541736093283,-0.09299220195158564,10.41631198599952,0.003614746551337999,-0.0003090161986573796,-0.0019062824068697398,0.72412109375,0.783935546875,-0.515869140625
7258,3.783,0.9054468928049676,-0.005961199595917263,0.0015218525739274693,-0.42441497661363276,0.025901015339130643,-0.09267392234446006,10.41631478383903,0.0037182740293201736,-4.89550342354702e-05,0.0017492173254709414,0.72314453125,0.7841796875,-0.5205078125
7259,3.792,0.9054396947006637,-0.005965648447634206,0.0015406592710260477,-0.4244302023513161,0.05927224064492864,-0.06220105041902544,10.439739021141971,0.0035941377857555195,0.0012556130243168183,-0.005696125844031561,0.7216796875,0.7763671875,-0.52001953125
7260,3.800,0.9054456329626064,-0.005964702816414771,0.0015451031091916687,-0.4244175311242914,0.026791267824147452,-0.06732339810507648,10.3830821149513,0.003718272148873855,-4.884269255440277e-05,0.0017492414936717536,0.736083984375,0.78564453125,-0.515380859375
7261,3.808,0.9054521066070039,-0.005977935005229321,0.0015453955006362596,-0.42440353283962995,0.05509135853001604,-0.09457525085182235,10.415071731892656,0.0035525194021829645,-0.0036984541123400985,0.0020180793151881415,0.728271484375,0.784423828125,-0.520751953125
7262,3.817,0.9054483236142605,-0.00597154321412837,0.0015449241072977185,-0.42441169534459133,0.02350328706763774,-0.12019571531407801,10.420611577740086,0.005396234465647032,-0.0005287772370799395,-0.003773300045734441,0.725830078125,0.773193359375,-0.51806640625
7263,3.825,0.9054448517142637,-0.005982507915661598,0.0015505520454746388,-0.42441892734835557,0.028909067002733387,-0.06208751057397984,10.412042400662589,0.003480116121048102,-0.0022641121172908996,-0.0035995303948219036,0.720458984375,0.77490234375,-0.519775390625
7264,3.833,0.9054475570426385,-0.005981999148079829,0.0015545514362536907,-0.42441314836081917,0.05286710435733033,-0.12234957008464117,10.419366891736102,0.0036665426701120774,-0.00017888771807570344,-7.857796552288325e-05,0.724853515625,0.782958984375,-0.517333984375
7265,3.842,0.9054473403340976,-0.005999227954104329,0.0015641312666283757,-0.4244133323061906,0.030763890421438875,-0.05739293713527403,10.440999325433209,0.001698647008607159,-0.0020444841878367558,-0.0017324737716013108,0.72705078125,0.779052734375,-0.5126953125
7266,3.850,0.9054467898428534,-0.005992398780499646,0.0015641050360100538,-0.42441460330149317,0.05571166888369429,-0.0929443795617604,10.41508311397573,0.005448017490379337,-0.00039855128577170456,-0.0019456322935917127,0.72607421875,0.77685546875,-0.517333984375
7267,3.858,0.9054465494328682,-0.006002794834617344,0.0015700191624855968,-0.4244149474442619,0.02669197468688233,-0.08970417745178162,10.416338785563207,0.0035319467456334233,-0.0021339314020100693,-0.0017717262319902403,0.725341796875,0.780517578125,-0.52099609375
7268,3.867,0.9054395567188682,-0.00600359956174061,0.0015726816911019635,-0.42442984413603635,0.028463692100268674,-0.08524368234515606,10.445294924834473,0.0035110943950194596,-0.0005697889494795946,-0.0055617892076319795,0.73046875,0.779541015625,-0.5166015625
7269,3.875,0.9054460288941256,-0.0060165882104468585,0.0015726912127306141,-0.4244158527535387,0.05612972474489608,-0.09193909361674739,10.4150897919026,0.0035529079006761184,-0.003697968291784609,0.0020183943086935557,0.725830078125,0.779541015625,-0.523193359375
7270,3.883,0.9054420206202535,-0.006013417031875315,0.0015825338869079168,-0.424424412230506,0.029736656759170456,-0.059917634045650175,10.412052782872854,0.003645622972323251,0.001385267798916075,-0.0038687959398003525,0.726806640625,0.78564453125,-0.519287109375
7271,3.892,0.9054415076365846,-0.006013372616421016,0.0015914554896159741,-0.42442547386789775,0.022770547061726605,-0.12139995069732919,10.391689732506267,0.005448031755933344,-0.00039847191616112587,-0.0019456967406439798,0.7294921875,0.780517578125,-0.52490234375
7272,3.900,0.9054409800707579,-0.006013301428936711,0.0015950095121428493,-0.4244265870077962,0.02874324135769659,-0.08383094248636545,10.44530559310397,0.0036147475282534264,-0.00030913379053768133,-0.0019063633655540249,0.733154296875,0.7724609375,-0.516357421875
7273,3.908,0.9054439705740723,-0.006023061080810748,0.001601171051587441,-0.4244200456358524,-0.0009559148134091102,-0.06012816605738967,10.384359345151292,0.0035838945712497834,-0.0020034439650909214,5.6125025901385355e-05,0.72412109375,0.780517578125,-0.515869140625
7274,3.917,0.90544366844819,-0.006019769857642748,0.0015944101975685545,-0.42442076232680587,0.056507495625641224,-0.09013448251814238,10.415103523212581,0.005365344644985682,-0.0022232829511329,-0.001810913550731411,0.7333984375,0.77783203125,-0.52294921875
7275,3.925,0.9054464781643037,-0.006046182302843642,0.001617977463891026,-0.4244143034917019,0.027469498200763037,-0.087134206946634,10.416358578918258,-0.001833299121097807,8.931712517323511e-05,3.9354088366002845e-05,0.722900390625,0.781494140625,-0.51025390625
7276,3.933,0.9054459504002994,-0.006046111321939338,0.001621531347252913,-0.4244154168708669,0.05826409022677958,-0.08574238716331832,10.44405773572411,0.0036147311398258847,-0.0003091693809755716,-0.0019064072648243054,0.739501953125,0.7822265625,-0.510986328125
7277,3.942,0.9054459100106502,-0.006046183183422279,0.0016132018499101584,-0.42441553375635244,0.026020457946307318,-0.09075250213658695,10.387410015069593,0.007116016959994429,-0.004137349390839126,-0.0017153788190969522,0.729248046875,0.774169921875,-0.511962890625
