packet_counter,timestamp_s,q_w,q_x,q_y,q_z,acc_x,acc_y,acc_z,gyr_x,gyr_y,gyr_z,mag_x,mag_y,mag_z
26390,0.000,0.4411876367098352,-0.832416278233815,-0.19429273069260805,0.2732891211624871,-0.2586235128160332,-9.832334501379401,-0.38232542637215616,0.04042517663395884,0.06077433609471268,-0.11392119487018997,0.45692020128316124,0.4229110708279642,-0.3345937580435674
26391,0.008,0.4414034945554403,-0.8324257425797643,-0.1944248887044018,0.2728173395095235,-0.2186516373983974,-9.70056890447176,-0.4665974111191174,0.04988892619990359,0.048256502686670914,-0.11103482671407651,0.4562104187693673,0.4252240440688365,-0.3273193822408847
26392,0.017,0.4415877607978227,-0.8324405223855597,-0.1945808039081319,0.27236251018539115,-0.21129782795683857,-9.668695319187849,-0.5020146620166465,0.04395074366103494,0.03522876460877046,-0.110320430116812,0.45581204963752203,0.4246181799685881,-0.3297384580391576
26393,0.025,0.4417073591288523,-0.832471825589171,-0.1947894194453265,0.271923427758259,-0.2426291713936774,-9.694632781147153,-0.6060320611433277,0.029831995644067775,0.02306715413233968,-0.11478267073670534,0.46274629986316246,0.41956724948210544,-0.33116764285887046
26394,0.033,0.44177900898610944,-0.8325160175816075,-0.19502334999175006,0.2715037396562109,-0.26654976807353925,-9.71477691467193,-0.618839764836315,0.019394907734840112,0.011121294459157976,-0.11455022100522094,0.45922531856491094,0.4235514351449018,-0.3229618640706348
26395,0.042,0.44185538829003046,-0.8325511749439533,-0.19526047094795027,0.27110091372714745,-0.2775622229034578,-9.727981792481923,-0.670686915438196,0.021161304622341896,0.0066720701029338424,-0.1119031599861031,0.45859154107357086,0.42694451528437105,-0.3280192008027825
26396,0.050,0.4419232307502659,-0.8325767128215105,-0.19553680091268455,0.2707124579316748,-0.231729850890367,-9.638169622416301,-0.6403394137146962,0.021927304484678216,-0.0019719221018596094,-0.11288152558776851,0.4548614165198459,0.4298302489108131,-0.3321685365438654
26398,0.067,0.4419500107355523,-0.8326676413546324,-0.19610805793613223,0.2699748445027378,-0.28207666217438476,-9.659340009529828,-0.6417821545885575,0.008308568109875175,-0.006010892076340548,-0.11112687752662746,0.4577199416541263,0.42695787735928176,-0.3313778127410104
26399,0.075,0.4418942508161972,-0.8327338809117715,-0.19641883842011404,0.2696356701011661,-0.29934569887633106,-9.660628050358115,-0.6296547204956513,-0.008089184325737468,-0.015299732334289714,-0.10980567747330175,0.46569963656033686,0.4286980902145842,-0.31553518401106573
26400,0.083,0.44181227840211146,-0.8328161849711246,-0.1967173040245936,0.26929800407833143,-0.34888401924734247,-9.662120786530156,-0.672486945448624,-0.015343573732194613,-0.01758274511545701,-0.10813242952084902,0.4638372126529811,0.42462735253746675,-0.3214036691033287
26401,0.092,0.4416838400159241,-0.8329377046572644,-0.1969680540806004,0.2689493470911906,-0.2973801835588835,-9.705588693731643,-0.7121144224621981,-0.030687428163888725,-0.015347847903297586,-0.10641933119668255,0.4609804861627332,0.42550623475558935,-0.32001993316186284
26402,0.100,0.4415065767274736,-0.8330886774997521,-0.1972181459462283,0.2685892794540279,-0.3529202910072776,-9.777918708265078,-0.7054752672218265,-0.04451914241988658,-0.007334567777330799,-0.10952964056371255,0.45263134582560177,0.433256432764961,-0.3208571033116829
26403,0.108,0.4413041821981737,-0.8332521718159795,-0.19745160503262413,0.2682429879948323,-0.3651606334621518,-9.823754503562439,-0.658258931514235,-0.05172073076833591,-0.007791203250206295,-0.10524461461772884,0.46357547295079715,0.433478795587214,-0.32463692962878726
26404,0.117,0.44109552405511315,-0.8334145498964202,-0.19767345711187204,0.26791814241094986,-0.3718829874897907,-9.79864690621239,-0.6629560754012841,-0.053461435765368916,-0.006975910594455239,-0.09945283014362404,0.45809611895772195,0.41680536109069516,-0.323032851752427
26405,0.125,0.4409036868908481,-0.8335806436988574,-0.19784542932881335,0.26759005106758676,-0.3567580231248786,-9.792846304200333,-0.5750773046122957,-0.05212327504672033,0.0017034669101112785,-0.09483077554856117,0.4543553350171378,0.4321418256496748,-0.31960523958537984
26406,0.133,0.44070205156740233,-0.8337577668760696,-0.19803396944011925,0.2672306772545075,-0.33140970369555145,-9.85025950585759,-0.5399558582363638,-0.054615625776805586,0.0046741347371192015,-0.10275449779800477,0.4611093060916874,0.4335653476015352,-0.32302051139421645
26411,0.175,0.44040878752292106,-0.8342600610569991,-0.1988577410869181,0.26552937541366517,-0.36509462359333,-9.816026077971905,-0.500652333201385,-0.016927805798508486,0.011352781146649093,-0.09251801540476526,0.4595536868888511,0.42874734900819483,-0.31145548832550907
26413,0.192,0.4403621178786311,-0.8344307869959603,-0.19917969803764526,0.26482808525604284,-0.41111259561268876,-9.75772804363472,-0.47590417168622406,-0.007741051819455112,0.0108918720294513,-0.09391380706363044,0.4596381296208408,0.43604085580016066,-0.3215995601296375
26415,0.208,0.4403236842766075,-0.8346207142443907,-0.19946948088705416,0.2640743126733591,-0.3804433009065183,-9.7485405814986,-0.4372093764790626,-0.00863680901728615,0.02148038332312396,-0.09719623959009159,0.45585954813484497,0.4332656053338397,-0.31010615708496614
26417,0.225,0.4403810436978483,-0.8348239011261633,-0.19963335592323012,0.2632111579377235,-0.3416283064683277,-9.70050110044665,-0.4103420718422339,-0.0010447455081880747,0.04126141784421373,-0.10013358872184713,0.4588654150400619,0.4322016535141747,-0.3139074054280489
26418,0.233,0.44047379234562567,-0.8349204886241643,-0.19965670247759548,0.2627314543179454,-0.32955694974834393,-9.666175656522118,-0.37041819332950116,0.01105852444642189,0.05998769693922071,-0.10257435222602124,0.4620228624973611,0.4292174023005114,-0.31143776650524396
26423,0.275,0.4413569358275455,-0.8352677067073183,-0.19945153316169958,0.26029022119216305,-0.4030951091576152,-9.609309269762518,-0.31093276250489926,0.029241548906782704,0.08070948062021985,-0.09436086704111898,0.45581464199575755,0.4395669537435404,-0.3129089232523438
26424,0.283,0.441603693891479,-0.8352718593190168,-0.19937772336640236,0.2599146436743893,-0.4208542421711933,-9.509361821153169,-0.21812741286895207,0.04976505093134075,0.07178036525109245,-0.06617826637407022,0.4651832987776826,0.4336251754660352,-0.3171030265740775
26425,0.292,0.4417943304751478,-0.835286813933215,-0.19934318582789126,0.25956887774404247,-0.40422161439270315,-9.572696643324203,-0.2674680966857842,0.03800038919165923,0.06123390103090108,-0.06439132485783537,0.4566532114104675,0.43367583076165644,-0.31721399873028383
26426,0.300,0.44198019028029745,-0.8352965269548551,-0.19931169591991416,0.259245195377807,-0.34926261749547716,-9.506843890632597,-0.23520641975022683,0.03741898767754047,0.05596093737920603,-0.06116628262858818,0.45459264128737137,0.43803155212954814,-0.310450544277253
26427,0.308,0.4421491417186868,-0.83531012788714,-0.19927165669443064,0.25894388111105354,-0.3519362032623184,-9.545935822477956,-0.2202212164650175,0.03325576487035276,0.05591191357679506,-0.054804556717689,0.4617191327809096,0.43076616598941436,-0.3169252814243507
26428,0.317,0.4423227399976964,-0.8353266196522947,-0.19922225405074717,0.25863202754520037,-0.3531607659414729,-9.51462984474379,-0.19147428102870043,0.03353676105532588,0.058581931563791476,-0.0564328283808234,0.46385166786131754,0.4319539630441111,-0.3159477482629547
26430,0.333,0.44269893522815906,-0.8353699520103212,-0.1989748925547113,0.25803815252588064,-0.33255830632442424,-9.57495797278028,-0.19416225415787255,0.03335246510691601,0.07338467119187218,-0.043685845114611495,0.4549657965573151,0.43187937660269,-0.3102524160411552
26431,0.342,0.442934131101692,-0.835401343633178,-0.19876530248184024,0.257694208492106,-0.392650219062604,-9.614222673722894,-0.10884160287334048,0.0390623138458459,0.09677486725996212,-0.04377735623089294,0.45681740221456346,0.4339953146691199,-0.30820446450889616
26432,0.350,0.44320804872284336,-0.8354014245568048,-0.19853887494998107,0.2573973592120684,-0.3799557747345701,-9.607658797928222,-0.07876293438804015,0.050032838033018896,0.09752552638407158,-0.029605120416434205,0.4540103693304578,0.43397138352331993,-0.30997840164737017
26433,0.358,0.4435174556558006,-0.8353711233614216,-0.19829584021375773,0.25714998062687394,-0.3528635732050512,-9.625855576603167,-0.04718195639499056,0.060085944804157555,0.09591272623616971,-0.01644858081337361,0.44748999468711886,0.4350993527135168,-0.3126120213466293
26435,0.375,0.44426533495519344,-0.8352310197900659,-0.1977415481257439,0.25674060037795093,-0.3035543916663017,-9.662291659261012,0.0486939735433184,0.07661874720332479,0.09935996259485994,-0.0015557358340999926,0.45529530874795504,0.43938048763998727,-0.30959821317254205
26436,0.383,0.4446928128542972,-0.835130878935125,-0.1974473050830502,0.2565526826213666,-0.2095276572324848,-9.670514871156143,0.12251896042451046,0.09005657765223452,0.10789524477981194,0.0053552616673723736,0.4674123381561848,0.4352190084425166,-0.3067076196021668
26437,0.392,0.44520141545192204,-0.8350147697622173,-0.19709869634131932,0.25631647988201817,-0.13663532989974053,-9.73051808402879,0.05548063670476947,0.10749461452923213,0.12259363126633302,0.003438490222969808,0.46431113074595115,0.4313467024418521,-0.31340737889963677
26438,0.400,0.44577597704873556,-0.8348742150351255,-0.1967182017957658,0.2560679059116335,-0.09506904192052391,-9.702805530990588,0.10669187410634152,0.12315496690918515,0.12698010652088695,0.005381890611355457,0.46219057770872823,0.427583483099298,-0.3116475123310671
26439,0.408,0.4464097331494569,-0.8347197060233792,-0.19633945594632074,0.2557580508300315,-0.024254451624573153,-9.692712583352003,0.12144631391637277,0.13721374988367344,0.14229602375734035,-0.005534676034178384,0.46932555986621854,0.4313333403669415,-0.31213544825808465
26440,0.417,0.44708419753813683,-0.834550269575196,-0.1959584798721691,0.25542482657298116,-0.010260219964821462,-9.685509319001932,0.09438285134369596,0.14740735863021429,0.14171358400695663,-0.01036394016680635,0.46288067458746235,0.4360514248710499,-0.3162473603901276
26441,0.425,0.44775046786381206,-0.8343828741258452,-0.1955945936829763,0.2550833056380265,-0.05936972791271644,-9.649615186222345,0.0506023997482043,0.14615579324601732,0.1442147273316851,-0.013097676966492939,0.46132684738653257,0.4315184099684838,-0.3057642239259242
26442,0.433,0.4483942193685916,-0.834226759804612,-0.195267032127028,0.25471380690302636,-0.0174592414457348,-9.692220053790557,0.09095840482002507,0.14157387208172376,0.1379986809534693,-0.02411577719157857,0.4598783520158943,0.42832655450948887,-0.31189635304778107
26443,0.442,0.4489695243013484,-0.8340869765529328,-0.19499411478696718,0.2543670123892943,-0.06340952915656417,-9.68822454860961,0.08554171942482652,0.12740701844461808,0.12291315034343878,-0.027004365649154063,0.45603448430825433,0.4375734644101315,-0.310844288839427
26445,0.458,0.4501397939621241,-0.8337623846351891,-0.19452536538374257,0.25372097682592554,-0.03174230218749383,-9.68649511973726,0.12294318833594668,0.13312031327708393,0.11316564775201116,-0.026081853591433415,0.46034804461197043,0.43421767749137286,-0.30825022955826503
26447,0.475,0.4514431360046969,-0.8333730019291969,-0.19408888692443796,0.25301786218011685,0.04016497053182937,-9.746509838853115,0.1705050661767402,0.15158126270651254,0.11421308229227181,-0.032022153944122715,0.47120887951400175,0.4271732576714814,-0.30948181059892876
26448,0.483,0.45218654353917653,-0.8331516045045962,-0.19384438431250814,0.25260658824348653,0.07954880115558587,-9.74510317666742,0.11358531697721277,0.1733415370377212,0.12125555070234437,-0.04046331946285173,0.45687548057582567,0.43450405768415773,-0.3129736573475119
26449,0.492,0.452947880049194,-0.8329047503794398,-0.19363369971853023,0.2522179317328927,0.08087467413641365,-9.713463948990478,0.08825153466873693,0.1808385448959626,0.1209406240954537,-0.03787195221855094,0.4662615550031973,0.42936517868134316,-0.3106205139145889
26450,0.500,0.45371665002930794,-0.8326617208279876,-0.19341277996677378,0.25180777728156417,0.05175873127021151,-9.73440995454355,0.08774568369454955,0.1813876994896304,0.1263907996372897,-0.04123913935478626,0.4559218652772528,0.43004562922301276,-0.3040124905117565
26451,0.508,0.45447500648186245,-0.8324170707254923,-0.1932054019070435,0.2514079583506459,0.07535653286508176,-9.75975929047085,0.038559918336534243,0.18016718560746087,0.12147390872970797,-0.040643775041113155,0.4647843743178023,0.42617053021832696,-0.3059551500620322
26454,0.533,0.4564761333171585,-0.8317920720589871,-0.19266463990436458,0.25026351132786895,0.09248578759990297,-9.745171422871753,0.004565068457958431,0.1579853216572636,0.10981730686735111,-0.042207893236263165,0.46558521888530296,0.4231637443608744,-0.31087784542771607
26455,0.542,0.4570763385156861,-0.8316021688473798,-0.1924954863483324,0.24992907248447008,0.0845461771692996,-9.767847125694754,-0.0016713706309268092,0.14164128158745976,0.09562054650149977,-0.03644225135562644,0.47326955554593,0.4324212233324064,-0.3086469440732036
26457,0.558,0.45820164549935666,-0.831244999452465,-0.19215469282780612,0.24931822430621778,0.10781464467841294,-9.773258696408679,0.010039928011506587,0.13272253439456144,0.09535219138038735,-0.029889694232713208,0.4663753444694024,0.43008431894573407,-0.3152790997234726
26460,0.583,0.4600153007384909,-0.8305749349358668,-0.19166134729594214,0.24859028238340575,0.21925426115645205,-9.66801699542259,-0.005135763488613458,0.1462675009711485,0.08564456696749662,-0.01598046625862032,0.46611421323226093,0.42755675894947676,-0.30602854176865113
26498,0.900,0.4515008699330317,-0.8329434188373064,-0.16731551225684532,0.27268616544218915,-0.9747710735078831,-9.364221283440234,-0.6514142839133685,-0.0823714832927468,0.049902823540081694,0.20302163882172422,0.49638904150899926,0.3794419962769972,-0.3219029819062648
26499,0.908,0.4522476460367568,-0.8324857803734866,-0.1632792613837799,0.2752805386004016,-3.6103283527221737,-8.674622942127003,-1.155561818206611,0.05375512820092297,0.5020595718914209,1.0183906967603553,0.49813460760420775,0.37971361789286073,-0.32006555789815677
26500,0.917,0.4529727450167343,-0.8319581743049189,-0.15907635693853237,0.278129468309986,-3.7117542802071535,-8.622649654783041,-1.1312727042862707,0.04197521990253404,0.5245975776035363,1.1220032126141224,0.5021755636433426,0.3761741578745704,-0.3250681068430106
26512,1.017,0.4569525165040344,-0.8177196645449162,-0.09401347688979815,0.33718009140557464,-4.248051765168772,-8.958297974492622,-0.8788658754936872,-0.0322875790119073,0.47902238279070375,1.7177400737293957,0.5209502706242074,0.2590371318414072,-0.38222707122960814
26513,1.025,0.45687347687703367,-0.8156390100782501,-0.08751442223635285,0.3440070599064803,-4.666541557165701,-9.705877633859899,-0.7328210419828336,-0.09172606816115433,0.4186212787256677,2.256779183568529,0.5331163654297506,0.24915763369069488,-0.382495397964707
26519,1.075,0.45459623274190747,-0.800175155125703,-0.04445790722285698,0.38869715818589046,-4.755464136683727,-10.13743562712547,-0.7114616988591824,-0.13450844781099164,0.4492912344652805,2.5180746030468732,0.5281036020567335,0.16857269418447493,-0.42229729723295006
26521,1.092,0.45302054609977555,-0.7937825884525822,-0.028227215851029087,0.4048268906165693,-4.674984032414851,-10.999839974714513,-0.5007976744874185,-0.1849723181441243,0.5251532923390511,2.796046522281795,0.5208120533466937,0.13758028115905216,-0.4308037585843649
26522,1.100,0.4521166121439043,-0.790348352322872,-0.019851695269781974,0.4129721070471416,-4.660851569322467,-11.435448803882814,-0.32529048802254085,-0.18862257486434267,0.5581973518784362,2.8671141744523063,0.5244491980095954,0.1323351085021485,-0.4452915767010073
26523,1.108,0.451244280824974,-0.7867121256566321,-0.011316793263868705,0.42111110239199223,-4.5198004255919635,-11.5458322206958,-0.24994351388596164,-0.16217393721958628,0.575662304969223,2.9097022171474185,0.5147741994091971,0.10868266805828075,-0.45093195183044826
26525,1.125,0.44950762565781416,-0.7789137040789842,0.0061072208837983635,0.43726312207469314,-4.342522433811886,-11.837748371662627,-0.11889223030817954,-0.13127046054970723,0.6026885019249417,2.9436544247836545,0.5113961424937016,0.08760425340025958,-0.45709591481336376
26526,1.133,0.44869216520058414,-0.7747578233750378,0.014965875690102838,0.44519847098975324,-4.23406736888626,-11.92265534241392,-0.01566104408135659,-0.08658537442987413,0.6303227255887626,2.961137023580719,0.5057460049433172,0.06948476230809104,-0.46397173800421926
26527,1.142,0.4478829021035602,-0.7704461954832766,0.023937219531153277,0.4530348500830321,-4.113694307201367,-12.030278906040767,-0.056437486924994076,-0.06489745463432267,0.6536598508343499,2.9762079111460538,0.5131437979714889,0.04569232155025949,-0.4633951755169228
26529,1.158,0.44627234721852277,-0.761345541137119,0.042073522475854386,0.46842691831829214,-3.9584394700785617,-12.181961241156898,-0.03227709171103296,-0.03268155504600742,0.6725939004028997,2.987350279864305,0.5066088225408171,0.020531203642220823,-0.47636950482704027
26530,1.167,0.4454604260750017,-0.756627627938685,0.0511248868634039,0.47588432143133413,-3.8806980563969864,-12.38950607979431,-0.10449294934921242,-0.0052657434514924205,0.6841986575100549,2.961264221972631,0.4945809242475171,0.0024729369165628324,-0.47745497377757223
26531,1.175,0.4445830901442926,-0.7518626662064609,0.06012000827915905,0.48315007164149126,-3.7006700502970586,-12.557457598365335,-0.12175792979649325,-0.005258784970712295,0.6929538950624095,2.9293489073742127,0.5012078210827289,-0.010957986825339829,-0.4794943680991124
26534,1.200,0.4416865201650074,-0.737308020958981,0.08660778960596066,0.503774742234709,-3.3692813672614776,-12.855969337102884,-0.1322035692898008,0.0038205359660944726,0.6989964318267168,2.852828176823576,0.48028539531610037,-0.05223314091923825,-0.4955251338648837
26535,1.208,0.4408156812822028,-0.732376727738985,0.09528961181217228,0.5101232730259717,-2.8692212403444666,-12.923353364482699,-0.10209090422470385,0.06186362206007383,0.7183477587184514,2.7546588241418566,0.4760969386427808,-0.06490763117603943,-0.4973280942422262
26536,1.217,0.44003368273568105,-0.7274405786911771,0.10394327714102315,0.5161359875737251,-2.5692705198098427,-12.81477828378925,-0.003304865472902365,0.10254601378466852,0.7459575095353929,2.6972883911604284,0.4764059650246234,-0.08431902291816859,-0.48965917472008813
26537,1.225,0.43933128471586047,-0.7225271579869611,0.11248696450981789,0.5218133871956181,-2.3097782801228033,-12.77601212406107,0.08495905198030156,0.13751747588393226,0.7585561790620476,2.625271015867088,0.46849634380711186,-0.09268286109465664,-0.5010209038610333
26538,1.233,0.43871369672344623,-0.7176492844180413,0.12076736176134273,0.5271859645464083,-1.9411278024271774,-13.038847913879438,0.038545569211014485,0.16527057849003027,0.7389225838423252,2.5374498137693497,0.4748129777692009,-0.10316822334561736,-0.5009626731093053
26539,1.242,0.4382363080428791,-0.7128289376681425,0.12863830819092484,0.5322368172173277,-1.3919126932152446,-13.037676243157188,0.11861955550706622,0.19934429512240212,0.6904478118595521,2.42553477208796,0.4657951189235957,-0.12626405848284727,-0.5052983841781222
26540,1.250,0.43776076179103757,-0.7082827147405936,0.1359970838968986,0.5368481206145416,-0.8105165875316275,-13.094973967352846,0.35385857878064475,0.19152653898581767,0.6562220981757482,2.2553948546753695,0.4598677352205712,-0.1310032811287344,-0.5089255875771914
26541,1.258,0.4372454229069352,-0.7040399769649937,0.1427923065853761,0.541067933038075,-0.4118498161388204,-13.495841395266773,0.3599958740414231,0.16726700434496938,0.6105421661474469,2.085021124524923,0.4556853622847202,-0.14231966330621781,-0.49714841465783444
26542,1.267,0.43685204711222186,-0.7000201369726917,0.14909487391165596,0.5448878924511561,0.03824606350932798,-13.83472153279874,0.4544603014280834,0.186817457228876,0.5662367791737961,1.9283062644906677,0.4472474014975831,-0.15937520257872134,-0.5003328148370112
26543,1.275,0.4366588548039952,-0.6962080082902162,0.1549853986137637,0.5482727240437616,0.5949663834356261,-14.226152269244084,0.6592495044938298,0.22968026188534593,0.5355719497304648,1.7807139935684073,0.4539923596081838,-0.16417844259514036,-0.502137814112706
26546,1.300,0.43742353812891765,-0.686710805125617,0.17112882677713726,0.5548007237381609,1.8448506702852052,-15.236261420586354,1.1306990243309762,0.3492674219921892,0.5860115605980412,1.435782554768279,0.44306902231458395,-0.1822353128187877,-0.5091711562074647
26547,1.308,0.4380233239408552,-0.6841958733267838,0.17598103374374868,0.5559156863849829,2.4702051156900997,-16.647741272003188,1.6583013767020884,0.43630937863686414,0.620381544584487,1.124471086040354,0.4396629082931609,-0.1985013148915112,-0.5045363789904326
26548,1.317,0.4386582007769617,-0.6818275487504686,0.18008744925740264,0.557008695871087,2.6673729106789446,-17.32861489000417,2.020783061113293,0.4013788219292351,0.4846438603572698,0.9971889382678221,0.445852666549324,-0.20007680273023531,-0.49441832149154574
26549,1.325,0.4394197754379224,-0.6795561177877237,0.18281568001387224,0.5582939824791499,3.2691181148654116,-17.780806658983284,2.2907501043781138,0.3398389180076312,0.19504440799524986,0.8440062361898206,0.43998268004431684,-0.213924331464812,-0.5066151254441429
26550,1.333,0.4404833956909503,-0.6772828926039728,0.1837489678157896,0.5599094376175466,4.468465095929095,-18.035974961195034,2.402846693258147,0.29129073856791493,-0.20839738856124468,0.6590323783515292,0.4417665991955636,-0.2117218413840609,-0.5041588343227569
26551,1.342,0.44211212233905434,-0.6750170765442551,0.18298343626973199,0.5616100779948893,6.365398892673359,-18.019547395619682,2.2464146879231857,0.31898278755371656,-0.58274047454986,0.4574073585901973,0.43435727372600147,-0.21113851192760177,-0.5063864595278731
26552,1.350,0.44478794401852684,-0.6726358691284043,0.18081434317782902,0.5630549224709956,8.407968992574524,-17.559355148887192,1.7556265179505914,0.4990842350377833,-0.9051879739781906,0.23698226866077834,0.4474105207137353,-0.21847988101116741,-0.5092352405014356
26553,1.358,0.4485771369154965,-0.6704717035427353,0.17769038280918764,0.5636243206625519,10.585510137791728,-17.02523161474585,1.049864137119629,0.7398237344876578,-1.0567204513559811,-0.052345128709523625,0.4428849143139774,-0.20717546440658405,-0.518220233387996
26555,1.375,0.45792128585834035,-0.6680685613475642,0.17174744392491142,0.5607988131247246,13.397192058213486,-16.13892533353379,0.3394135219247159,1.0263137034462018,-0.8139811481880355,-0.4918810756621783,0.447506317280081,-0.21857700209637795,-0.5166431598011323
26556,1.383,0.4625521216450461,-0.6682729219753781,0.16969786241442694,0.5573683450000824,15.77460459673927,-15.012397564168063,0.6273373063203089,1.1228493124049668,-0.3287359920213645,-0.8658206522654339,0.45796773845027333,-0.2166503231375223,-0.5050996691336254
26558,1.400,0.4700884795122304,-0.671562338250038,0.16450753778387797,0.5485964976978132,18.74351523431473,-15.131909106978648,1.2014852876116584,0.8890958267371759,-0.19166929490700493,-1.2803397791586681,0.4527562540265493,-0.21070714835800644,-0.5083909935957742
26559,1.408,0.47316741483295094,-0.6751404533761712,0.15837297913768744,0.5433378002995687,22.28387029906569,-17.11866664499235,1.1493928581203636,0.5015695474510149,-0.6414445853555832,-2.0695100253577756,0.4677594889539869,-0.19880245366121735,-0.5030265538987856
26560,1.417,0.4759368753982324,-0.6800926134203799,0.1486845943471358,0.5374486200661723,24.20942969166694,-19.556421278212664,1.01586248875726,0.2240205197801001,-1.1831301196050386,-2.7924970734803973,0.4725744755881004,-0.1863489297246585,-0.5086632562559568
26561,1.425,0.4784316344393984,-0.6866905326861253,0.1362305784290028,0.5300948150923482,25.761799979300445,-21.924999187579743,1.2402190995782068,0.031780313836818314,-1.4706667165510496,-3.5520393613719405,0.486398328030248,-0.16386175169169823,-0.49858493596469494
26562,1.433,0.48079432766112634,-0.6949759090164348,0.12326599913311814,0.5202410920269372,26.848588591326077,-22.86395923766789,2.5772919112934454,0.03969911299397491,-1.2091002168308709,-4.251385480722847,0.49563237230374313,-0.14129579771128473,-0.5035890168098056
26563,1.442,0.48306397018337865,-0.7054783998470947,0.111574299538487,0.50645888652718,26.723885786693963,-23.712382423058664,4.3452440688689995,0.17477043508254564,-0.40909426892630874,-5.005745351198348,0.5134851987418407,-0.11977265740875763,-0.5012506451933634
26565,1.458,0.4893270847541327,-0.732318264861165,0.09207169184470103,0.46453392409770156,23.66898757688892,-26.81900390139128,6.748392175911709,0.6956861575598813,0.8607510307423323,-6.364674654372701,0.5463546906420963,-0.07627666809635074,-0.46312872648664033
26566,1.467,0.4942757880663162,-0.7467383074447808,0.08080511885258955,0.4376572612137783,17.769197653576736,-32.05972242631079,8.616246372646101,1.3721684066267152,1.1677020345039848,-7.649238452426975,0.5735525474286234,-0.03356881948171326,-0.437895255669121
26567,1.475,0.49979537824365483,-0.760549537659005,0.06621029826373019,0.40912733599306716,12.89234523030909,-36.69098811234302,9.601735729993395,1.625686377363748,0.6015252660783593,-8.300074688800013,0.5780941103000778,0.0029284222435767278,-0.41422508409070274
26568,1.483,0.5046592030609912,-0.7737297714416228,0.0469964620360833,0.38006928592933037,7.973478698526421,-42.16878408154763,10.097482518350926,1.5601143650705815,-0.3229805657641267,-8.845105539132533,0.5882115181784501,0.061062080435536355,-0.38925380927577946
26570,1.500,0.5105634488495874,-0.7962768371065274,-0.005410078100767128,0.32440544761360585,1.2001352555378706,-51.970176884231826,9.559635486206936,1.3005351589949259,-1.99412068691553,-9.292268150103464,0.5950160365893336,0.15916343993769783,-0.3540354502869037
26571,1.508,0.5127611196958315,-0.8041383537242592,-0.0373012445021902,0.2984060310323904,-3.5340370066600912,-59.81149808910851,8.483407374123752,1.5092738636216922,-3.5220229552938616,-9.25890367069207,0.5830811582764671,0.23093841912091312,-0.3191165755910253
26573,1.525,0.5143496902557659,-0.8140347098567177,-0.10597483643822479,0.24811533875232047,-7.117236091159186,-63.321338109406774,7.376772470534236,1.5761368906674398,-4.276346408035526,-9.22132320958173,0.5284055812475559,0.34135390519086567,-0.29144443102308004
26574,1.533,0.5122149011569538,-0.8175597511908712,-0.14034769405367806,0.22256341352367187,-9.417914891029728,-61.87933987312912,6.964464748188055,1.17004095454521,-4.393748806220709,-9.219156112566758,0.5016452341404359,0.39851854258954555,-0.2821605082384236
26576,1.550,0.5008622432112564,-0.8242019557662165,-0.20258807699928025,0.16966502436939035,-11.81803241888862,-56.42942219325722,7.108825469164663,0.3833377546011073,-3.818950786702535,-9.157487903518932,0.4322104272989573,0.49061969245171255,-0.22137780993353595
26577,1.558,0.4935718003675076,-0.8268393461065539,-0.22895801381022843,0.14248439045783118,-15.462298312106196,-51.072399004281955,8.013295516146233,-0.08654490510360092,-2.899832741379563,-8.764081302845796,0.3971824469006809,0.5372082260790785,-0.18888945932059117
26578,1.567,0.48694979374309305,-0.8282022602946116,-0.2523061428488162,0.11533657137789799,-18.23344901977154,-47.053773932130426,8.40364388915311,0.03187747352047027,-2.2904170406796345,-8.439261933654207,0.3510687370487409,0.5634269162419248,-0.17026952527947187
26579,1.575,0.48196668478478244,-0.8275149360980988,-0.2741005455912372,0.08829516520575913,-20.942251998663345,-41.936989176939164,8.477869279229372,0.5122674490182997,-1.9015815751056346,-8.159630487362085,0.3209729580739393,0.5863229232006912,-0.13938610720850356
26580,1.583,0.47875857671800065,-0.824332697083536,-0.29563845888653334,0.062158920237838436,-22.958874784849872,-35.91039701653232,8.475601294701072,1.164286350086267,-1.8403941272713198,-7.904739334596656,0.2776884332641905,0.6139651353153978,-0.12220458901094912
26583,1.608,0.46237040683363595,-0.8039883500802416,-0.37386028105913127,-0.006695525829748164,-28.278414518198122,-25.016400476143385,7.257788930894746,1.6182777137122264,-3.333646506660707,-7.748652367513112,0.12295479582084844,0.6573089681293224,-0.07121111112034471
26584,1.617,0.44818774529283006,-0.7943406078563684,-0.40910163703888175,-0.02804628766543563,-42.868712088944356,-13.003091158337188,4.685697862627892,1.3764596283626112,-6.256771815914604,-8.549790271080976,0.06675949234479299,0.6722633279123172,-0.04764162678012938
26585,1.625,0.4299209230901547,-0.7833813186288666,-0.446265719526356,-0.04825574668608665,-54.48776138520546,-3.2261711205417334,2.81841734416211,1.098478283114823,-7.265681603084639,-8.671181761885604,0.006361958150326756,0.6768336360355941,-0.02753061594271837
26587,1.642,0.3989550345902333,-0.7699455910843269,-0.4934733594788561,-0.06710224012329374,-62.8240987898127,8.846055787805597,-0.2468784133529456,0.2007775334848795,-5.464685362005438,-4.8573125949509715,-0.07036377625393508,0.6669210341702032,0.001409799890507212
26588,1.650,0.39023530719055494,-0.7705952748876012,-0.49975833648573953,-0.0643500773566179,-69.29341614718629,7.89239992451396,-0.8768715763011449,-0.6781946320093376,-2.5692286302819833,-0.1186448457290207,-0.0667275833838553,0.662383829761605,0.02545336786263519
26589,1.658,0.386775532937449,-0.7734897067359442,-0.49900107027090174,-0.05582376342554413,-67.6891141019648,5.02631581398492,0.6877614080094865,-0.4652863960235274,-1.1097177974798704,1.9849899918061404,-0.06387914902414696,0.6742540242417048,0.026766779960951594
26590,1.667,0.38924363070853363,-0.7775902794097899,-0.49195083882738394,-0.042744888551468775,-62.37698610473301,2.414418223613487,2.9225302739027983,0.016496093650006705,0.41930142348369803,3.731747507946632,-0.03791516304027072,0.6702417179270767,0.020243565052999776
26598,1.733,0.4576845435719397,-0.8137027185276197,-0.29278254899071254,0.20661830374535559,-43.63248230170156,-11.233752689738779,2.9779783524280803,0.43647665959778953,2.627237316026108,9.532787605539433,0.29359147555145576,0.5505869074117307,-0.22305541735394527
26599,1.742,0.4562986824660082,-0.8147032009270143,-0.2573754299776574,0.248612338436526,-31.249083333199277,-32.956142937434755,3.4226214857671513,-1.3655326512679857,2.5090915947864953,12.834862557088094,0.33665430645025923,0.5221298304494332,-0.24827519019811545
26600,1.750,0.451158736358301,-0.8137194198477572,-0.22155254806851168,0.29194343427205305,-28.372997855950956,-39.053163491299614,3.1598166448471807,-1.8993479270684495,2.0877047426648354,13.25728855068441,0.37949836620506316,0.476975387844817,-0.277728359566347
26602,1.767,0.4345266279452244,-0.803820499741271,-0.15317884026589793,0.3762917175504142,-22.99907261214753,-50.87443769050791,1.7671024524146426,-2.033636257951224,1.4649883858795554,12.99727737644966,0.43055687384620206,0.3787755107554343,-0.3440596041897694
26613,1.858,0.40782808971855866,-0.6763150646768623,0.08393123022955701,0.6076427660392217,9.381198320471842,-55.66356317161131,5.086731183030058,0.3333720759550347,1.0602650497625594,7.728586906904694,0.43421931528900737,-0.0028737369432019753,-0.5457363556973559
26617,1.892,0.4253606953496326,-0.6569609320944947,0.0953657314812226,0.6151227436961352,17.77759869179832,-24.75011743481347,1.6182942329060896,1.35031445597749,-0.29790641791764333,1.1127726547184267,0.4250211839344373,-0.021773592666271928,-0.5488018074064717
26620,1.917,0.44241206469102135,-0.6453015383120008,0.10128941583100404,0.6144899868253406,21.433504040969105,-6.85783811649357,-2.2713317517001324,1.6267498347528118,-0.24685902232858467,0.5081427002294938,0.42327250318099635,-0.032205506617590016,-0.5598716924481716
26622,1.933,0.4474830302519535,-0.6455056172638273,0.12168885912914564,0.6068552193737988,27.87798030624995,1.833416347779269,-0.7521649400204667,1.4087001464582647,2.2192761136775077,0.5663756270163232,0.4328395248210433,-0.05267447061452687,-0.5359931367076419
26623,1.942,0.44444824953084006,-0.6498132676953274,0.12873893629442015,0.6030213569168795,31.498813916054978,0.9621364538789468,2.0419672182604747,-0.26439315106532707,2.2835145374740518,-0.18685618600499854,0.45045017818152405,-0.06115717096320003,-0.5314219567354657
26627,1.975,0.4321551109182412,-0.6772790022855014,0.13209069105957297,0.5805920792654713,34.98028605188631,-1.1566994487483429,5.7522177318368195,-0.7139517471178005,1.4566759186025138,-1.5772850201024577,0.47842313027199285,-0.04189834805313067,-0.4899961374890127
26632,2.017,0.45731915567087733,-0.7278481739638285,0.13413608395146676,0.49305551056261526,29.36569522074208,-6.493769429497907,8.391844745248392,1.588640195737352,2.4055006485448676,-4.082196060079538,0.5560687439901936,0.00717366045134732,-0.4009677051843579
26633,2.025,0.4669208196610742,-0.7366979780357865,0.12476221110067014,0.47296451030313735,28.74859990077557,-18.296220845916075,5.35473128183473,2.575100137779314,0.45433154704726986,-5.536173807712911,0.5712032389836986,0.025402238201626362,-0.38991544405221823
26644,2.117,0.4982104430267745,-0.8373347686292123,-0.1571940051090002,0.16108036646817095,17.57559153405224,-48.43686265985773,9.009811300028899,1.4759251307885126,-1.737834717993123,-9.25480229437263,0.4404033598668664,0.5809379408414425,-0.10253733143657773
26645,2.125,0.4883851151332187,-0.8386732752501875,-0.20233459273973656,0.13102606335489717,14.248880039089032,-89.89660839663296,15.252920079051512,0.9950333522767183,-6.3845880004600115,-11.32003161979507,0.3721834513627779,0.6185940654127825,-0.07190594479991441
26646,2.133,0.47366871753703654,-0.8396808240642303,-0.24603435886288744,0.10020555865101934,11.784060713600898,-91.8070429724363,12.455408720192482,0.0365222911245267,-6.404535928053563,-11.671174551368612,0.29570797095104623,0.6618162430505004,-0.020759795021540118
26647,2.142,0.4547710233316452,-0.8405688255525758,-0.2862659649754877,0.06840440880312361,10.010067260221392,-88.23133231388549,11.123401455698257,-0.9906294103436272,-5.981558164323901,-11.601412447018456,0.223479389193236,0.6759980142694618,0.030677177375425427
26648,2.150,0.4352063982540246,-0.8408555546723107,-0.3200165855449396,0.033863137356702835,3.318688908010145,-83.5621941135542,9.397598150009529,-1.5627791501601593,-4.536674140950135,-11.548057835089374,0.15971310902993316,0.6783335221541236,0.07829148688779311
26651,2.175,0.4193099172207402,-0.8163408484405755,-0.3901031248456722,-0.07474198601388368,-9.714567713706995,-63.81792857287054,9.996717975612093,1.2420924758424998,-1.0551957522136082,-10.472898257894235,-0.007199174293870321,0.6537254229918866,0.11378942939924248
26652,2.183,0.42530930795521765,-0.7999441960744109,-0.4098122798170044,-0.10609039091599279,-22.3694567538071,-44.231968719713315,11.469809715480942,4.013713489952114,0.5564742202738381,-8.917199474837126,-0.058257557303874906,0.6445227888220081,0.11282336945154134
26654,2.200,0.4295733446779115,-0.7614552288860387,-0.46173059996970484,-0.14985836311650969,-30.85239262991376,-33.12237123138607,12.986893157728565,4.866488524079623,-1.9601885689215024,-7.7775408377912285,-0.14483831211430082,0.6116641276474255,0.08529283666487013
26656,2.217,0.3902725318747373,-0.7279526559878587,-0.536792343926838,-0.17212280791875295,-42.918620375285016,-26.276668155505714,11.329593012842885,3.196889697304778,-8.13389393701683,-7.080921818027292,-0.24061744898249604,0.5633952090292569,0.10679768501924006
26657,2.225,0.3567839600293086,-0.711074164603981,-0.5774542088378698,-0.18337223070570113,-58.576072468567205,-21.260482815541945,6.768006104278422,1.6627787404279073,-10.937177141117253,-7.805092415285618,-0.275105597276776,0.5313811204677265,0.13764418990077146
26658,2.233,0.3236756158437624,-0.6919141071242345,-0.6145049372356809,-0.1971614723611252,-72.71362241579344,-10.768063676504926,2.0263148489303466,1.3944874938051939,-10.177321725458384,-8.291827996038275,-0.3074079262385667,0.49794350995433556,0.16740312800357593
26659,2.242,0.2981106299456553,-0.6766313099333705,-0.6407023328513861,-0.20688316366985468,-83.03584856722173,-0.7608555116239154,-1.3439679630587176,0.9513114650488789,-7.611040402463786,-6.090209735357752,-0.34166365517896563,0.4775680804817733,0.18677118250940022
26660,2.250,0.2832393842578545,-0.6714674294502491,-0.6528427242154851,-0.20664781593719048,-87.65509308329128,6.271289744025926,-2.239355788618224,0.31223836202957295,-4.429134818205805,-1.7387441205860454,-0.339230478471835,0.45793292941538044,0.19702915495161025
26661,2.258,0.2777811670282908,-0.676127830116628,-0.653016025259541,-0.1981384650702921,-85.88609353556289,4.622158132719622,0.26011943887830846,-0.3225309291925295,-1.631767163396179,2.092651488548821,-0.3355188956864699,0.4681333079755669,0.19300084555980287
26662,2.267,0.2812251686480158,-0.6846807847088754,-0.6472303494507812,-0.18225669348244472,-79.3477214543747,-2.8914424137555916,3.072533129524963,0.39161410759134463,0.31837480631076054,4.5942027769126925,-0.31508915470049625,0.4780951686345684,0.193399951635051
26663,2.275,0.2935539538866872,-0.6945660708500829,-0.6378219449608794,-0.15680311191966592,-70.20800460254388,-8.541129376654933,4.920034887969733,1.9784801507275276,1.76480157014885,7.061602717945654,-0.2783647790937102,0.5060076058631281,0.17839034635388887
26664,2.283,0.31167291535630365,-0.7049918064355115,-0.6250286989543482,-0.12323015935854253,-63.368561744108774,-13.03804461849217,5.076052124379966,3.154055908074991,2.6640053382980735,9.083879986856802,-0.24127575880731036,0.5235880432296015,0.1478230290422701
26666,2.300,0.3513091951867841,-0.7286773940859756,-0.5862797527966799,-0.043441410957174104,-55.23589525260001,-20.794631512006514,4.130151869145423,3.163592200703363,3.4080801865510324,11.070378733463166,-0.15415943114818526,0.5574971035373196,0.08632498673556706
26670,2.333,0.3871902275851715,-0.788139801329702,-0.4599193505283143,0.13188469294097432,-42.33944976184779,-34.489540458088726,3.567885102425858,0.36916520776257966,3.2466450167809815,13.253269518190432,0.09696649554384185,0.5569349122226391,-0.02023294914783502
26672,2.350,0.36600566928470374,-0.8139102212753556,-0.3915440448496598,0.2242392978443467,-34.762269277730645,-50.998572803975165,4.0037728286403045,-2.971782515648366,0.9100278530581405,14.01491251053352,0.20359156226708255,0.5154726890799918,-0.047340748091125096
26673,2.358,0.3537851477682713,-0.8202004323663427,-0.35684751281598526,0.2734358655364968,-32.58877124844495,-57.86507650603596,4.6450256708671445,-2.3803337020057524,0.054686584587914644,14.614420850430117,0.2552970135816484,0.47805368590782576,-0.07711062903904108
26674,2.367,0.3439266957779452,-0.8213125198539066,-0.31929174392761284,0.32436546505778757,-30.936439944146738,-61.28819455146427,5.172615940702998,-1.3267601514112823,0.1848438382540449,15.31735787251163,0.29258276498547386,0.440142094799554,-0.10945825151393553
26686,2.467,0.3393632481885643,-0.6928268379203367,0.08753904232559191,0.6302066918915834,-5.763881908868593,-63.945973976005625,8.100395736369931,1.2868748753043677,2.3030743337718125,10.290608728570994,0.38317761774122905,-0.007640096072487775,-0.3740836312934551
26688,2.483,0.34517996339346374,-0.6794499336223514,0.10223036911733996,0.6393336626538617,21.13839231733616,-36.6955616155105,3.1156377810232474,1.243470866999028,-0.00515406057387101,2.4017786037111293,0.3929580866893428,-0.039520563884911805,-0.4035108013253715
26695,2.542,0.370164179544115,-0.7123270920325182,0.1831667966713164,0.5674667556219462,18.445995480244648,-19.198656501643146,5.59366222786662,1.8181850368357655,3.4997902098140523,-0.5103070441471835,0.4533946955036219,-0.11530267570829013,-0.33290962833798254
26696,2.550,0.3705592662780911,-0.7124123297673431,0.1805558195524241,0.5679384637411536,33.1609583775921,7.352687204543442,10.24145742689065,-0.08447999886130311,-0.5475833218746036,-0.29065005517138615,0.44526586682456815,-0.11913629198623336,-0.34307839831748554
26700,2.583,0.4053133414403984,-0.738890747381776,0.1945768741080192,0.5018977971124919,48.825711712945,1.3817989531288493,7.483339444037213,2.9222511027412037,2.5771512339504143,-2.8501524697095384,0.4820642514261749,-0.12591807214752126,-0.2721909619358233
26705,2.625,0.37568910953069456,-0.8203974711564846,0.15610973732412836,0.40179028387041754,54.366313340435205,-1.1278046732397233,18.388064812791512,-0.8413723712961625,2.2338473121848565,-6.175537399523078,0.5355889875116701,-0.07945458964557914,-0.18383451075986249
26707,2.642,0.4010180409968825,-0.8459476589378208,0.12676280667424894,0.32785405285997415,53.827920731510225,-26.374989504306978,21.615178846268854,4.7303029202831635,2.4985422367577574,-8.980468356627838,0.5550596518129347,-0.036159825013646604,-0.12672552766945175
26709,2.658,0.43758922240624054,-0.8606506381315627,0.07957074196762529,0.24792064968525213,52.99491106181906,-40.59186679498961,21.901603820026896,6.750490969999388,0.9314746084654826,-9.990497825744512,0.5707972754356544,0.023624701015273055,-0.07431439209385345
26710,2.667,0.4403940890497986,-0.8700730443524883,0.03755326074894052,0.21821021155829007,51.77837554059716,-53.877827927281075,27.580089280987753,3.359780527264195,-4.116078203820247,-11.363375723389947,0.5786329019098176,0.07115194472526154,-0.05550145901746547
26714,2.700,0.44204873038962095,-0.8699491438901213,-0.20371863899422024,0.07924722791436965,61.6432253164116,-105.57109374693077,11.807869677194695,4.9295075020307575,-7.347510362856629,-14.23243952343309,0.5061394930706602,0.3783449096323135,-0.010017487697042464
26718,2.733,0.3990100144171395,-0.8304557249784654,-0.36688144537529593,-0.12857800078030426,55.50383794577693,-138.62663338682302,2.4384948607555184,2.4304561531882642,-2.5374115139768127,-15.872504634224052,0.23135872571573607,0.617998358049846,0.14835233021120703
26719,2.742,0.38116898394709603,-0.8134812663741932,-0.399327868191839,-0.18301827400655737,39.88710257591187,-136.8995737637592,11.999830868715101,1.060077364175264,-1.7553496918961846,-16.113633528557536,0.14160030301333165,0.6403060524893066,0.1866950099003227
26720,2.750,0.3624918535317466,-0.7927248681705428,-0.4313860187223694,-0.23257910989161973,27.22718473676913,-127.21917533597386,14.317640952435598,1.5745001754540127,-2.2679175463692345,-15.427834077795184,0.04069691534504993,0.6439869093235715,0.22027794603509157
26722,2.767,0.32044140105826574,-0.742352548469474,-0.4973103280576199,-0.3145034815004692,9.757537506500041,-106.92827814721008,16.77431841547523,2.370789353135984,-3.5561025362264873,-14.240965887306924,-0.14075836623373209,0.6306445370431967,0.2578378542088887
26723,2.775,0.2940185750952471,-0.7154103755212284,-0.532727258365762,-0.34342792590241467,-5.041589061516882,-88.85417510238949,15.456570280801118,3.1353119843149195,-5.881330613871398,-12.554582627282775,-0.21491209275025663,0.5987253795080514,0.2766884300718321
26724,2.783,0.2638504913405945,-0.6891668333191348,-0.5684349544061222,-0.3637494971563713,-12.22608401999483,-75.53018208618339,12.96320255427234,3.368414341941203,-7.379965865732104,-11.113164126484934,-0.29370586972748536,0.5586605571126392,0.3004375765374859
26725,2.792,0.22990054592404738,-0.6645771215371928,-0.6021481623997468,-0.3780219293001036,-18.02872231796653,-62.04896876150828,10.937180612692188,3.0253635722542844,-8.448994527111315,-9.88555742271257,-0.3370627034243631,0.5150028263992937,0.3185609793914871
26726,2.800,0.19241592902668767,-0.6421899099271723,-0.6319969984084969,-0.3887776020389774,-21.816578020240453,-50.15350907786669,9.578612427269533,2.188535366174115,-9.111614704619045,-8.941181282691987,-0.3853123870183827,0.45728158369397615,0.3454228305549663
26727,2.808,0.15291633494541243,-0.6221080845602305,-0.6565550006051127,-0.3981628521247106,-21.67482116005242,-40.033863554099575,9.502366691251938,1.094129538752577,-9.224381129390961,-8.159908394941448,-0.4191801551454134,0.4004138955589705,0.36718929651947735
26728,2.817,0.11289191699598776,-0.6030700027750162,-0.6758548563475103,-0.4083897647853087,-20.46094116831832,-33.4363964803659,10.099901386431496,0.029679906527379517,-8.880758799685244,-7.856443809826684,-0.4525092678263303,0.3521457704976165,0.4019650798819201
26730,2.833,0.03667796881985408,-0.5572522543027008,-0.7053274121159839,-0.4366209951383206,-23.538643508201233,-29.175717988456444,11.861444350049167,-0.6436350465379739,-7.811369605504929,-8.745953563996842,-0.48053078866966265,0.22778223865865932,0.4543337732985219
26731,2.842,0.006231458185784003,-0.5202233242098531,-0.7206838253880362,-0.4581961214381849,-41.000737040981946,-27.017544651699914,12.485142733970253,0.09478421860806725,-5.35297082951285,-12.006111645925838,-0.513256436455158,0.1559045523821909,0.4561161581895914
26732,2.850,-0.013914481535174576,-0.4716827415486221,-0.7373379943825005,-0.4833781755197219,-61.238569374198356,-22.7498867585181,11.61978822043837,1.2902777106709846,-2.613086377497967,-14.252490334224797,-0.5378606818817714,0.08346248473221668,0.43440379307889404
26733,2.858,-0.020765593263352304,-0.4247455970326928,-0.7502964229474922,-0.5061770892187443,-78.20770035149327,-15.791772008486983,7.316283397904389,1.6271977160582676,0.368338403456784,-12.902068782366888,-0.5638175731582618,0.012533284052445361,0.40295054003602115
26734,2.867,-0.019538067524637333,-0.4047742165149457,-0.7569646899596629,-0.5126212595244038,-80.19987824863682,-1.6189344573827285,6.512519120277348,1.5518709072971726,0.9500710693741348,-4.970249369187515,-0.5752813182297174,-0.00504934337285335,0.38127623493956303
26735,2.875,-0.021338074505390995,-0.4239301117773986,-0.7501749888311834,-0.5070162058918224,-65.85647154584348,-0.7411503792129415,10.908921861730075,-1.6636123729487189,-1.016699804526265,4.691835785978555,-0.5705632587443976,0.0006391584265456004,0.40041231745625067
26736,2.883,-0.03225783688754076,-0.45705162778391595,-0.7353180529371489,-0.4993702058835011,-50.85255175942935,-20.612128185917587,11.126491133338076,-3.974332440927771,-3.4478019697351043,7.645696742681595,-0.5398293966564043,0.02595163927625203,0.43809328101446
26737,2.892,-0.04645009958674591,-0.48797894193261604,-0.7214517851475073,-0.4891076182050135,-28.657618476038152,-38.88284364831157,11.223423423614673,-3.3817346614639203,-4.317660900130777,7.333700180090991,-0.517564012524967,0.04759164230375766,0.46493114587946144
26738,2.900,-0.05701575054326323,-0.5148100156945501,-0.7092475234515163,-0.47821313491837164,-11.424557451716376,-41.648125696901815,10.531504326381409,-2.5537297858988772,-3.4803667660125277,6.683663493772301,-0.48398734357081363,0.05535320294083328,0.49468807160025874
26739,2.908,-0.0658655181279367,-0.535205565377035,-0.6977321885454444,-0.47157876264604187,-6.81432931798453,-33.06830683007338,11.397170142382313,-2.603458743208925,-2.6610851067149355,4.979089413412633,-0.464759699198376,0.06992764800666876,0.5133240172133121
26740,2.917,-0.07543487413203448,-0.5485268939172419,-0.6882381831481247,-0.46878143059549227,-10.898402144851582,-26.83625843539237,10.779611523979167,-2.4963988128599417,-2.4346168532541674,2.994940510938967,-0.44552682439921526,0.06639456755323572,0.5238295142423693
26742,2.933,-0.10294402740670765,-0.5604911722495763,-0.6836651135557559,-0.4559102823564941,-18.532230356458548,-21.377810556675605,5.722244459485592,-0.6329077990952191,-3.6722082882119538,1.3113542635331807,-0.4154281748272547,0.05486997818522466,0.5575357364039747
26743,2.942,-0.12289490231777522,-0.5636134190626022,-0.6861328234258185,-0.4432363990632799,-24.26813776437195,-15.85368943860084,0.5832356059753323,0.8103441162563503,-5.629393937117039,0.7899427751004776,-0.38206083437773536,0.03321182063158042,0.5727662910332407
26744,2.950,-0.1417733192637558,-0.5694202974040137,-0.6871743906805058,-0.4283132120798256,-23.18780782264796,-13.061524309764739,-1.9778873984449956,0.9004552595844109,-5.619435362731947,1.7146665244445332,-0.35068929367013024,0.02942686020205177,0.5938034487526809
26745,2.958,-0.15011622012504788,-0.583465147652357,-0.6823453936727639,-0.41405109064455115,-18.51103632885563,-13.029587741618839,-2.592320432958533,0.3288032507115048,-3.225967314146629,4.226989451272849,-0.3307572560738705,0.04539032700305836,0.6018979856789138
26746,2.967,-0.1429009188650453,-0.6042294681221174,-0.67219648780761,-0.4032839682153296,-14.4515287460126,-14.64002939593495,-1.5427839187403212,-0.07270839525872926,0.535802705227268,6.3375780388636205,-0.3116021255272453,0.06832362718253523,0.607364632035463
26747,2.975,-0.11894574957077121,-0.6252392179403247,-0.6611218356956697,-0.397298058609411,-11.822380187401967,-15.906917610423578,-0.5544402510965261,0.45093819695786513,4.6720084370176025,6.7659376884238185,-0.3126393306122455,0.12209658094375656,0.6036772319536018
26748,2.983,-0.0797462320917372,-0.6427501810225069,-0.6515849821338064,-0.3949047408178247,-11.011924078518515,-15.03759979454914,0.9149920857203183,1.682862306466651,8.287886227024863,6.347826187395592,-0.32082789090018876,0.16173981528364823,0.5787363735376578
26750,3.000,0.0002945465775186581,-0.6746862600913771,-0.6270514672846865,-0.38936463766288093,-11.061863378586873,-10.761630352037704,6.14571650703081,1.4787713683044175,8.534793639164926,6.425090810689228,-0.32978475520544787,0.2497229681222938,0.5457574827984706
26751,3.008,0.014648400547958233,-0.6962231571932064,-0.6082433501326071,-0.38091832033754147,-10.437474916768862,-9.370773957724719,8.936715231632204,-1.7941560542100563,2.8420134256905296,7.204788327015514,-0.3056061825746065,0.2788696681951394,0.5508857872634302
26752,3.017,0.005401634125541882,-0.7214557608261405,-0.5865184872649333,-0.36806041843154375,-10.992335441708544,-10.801795428121626,8.207125710983151,-4.487867123503031,-2.381193322926024,7.245704130592396,-0.2683270696342467,0.2878365774678545,0.5608573161003315
26755,3.042,-0.08254103560936654,-0.7880927003697943,-0.5249176326276598,-0.3107383980472196,-4.995257679698254,-14.492673643685231,7.167307327008701,-5.647276444738205,-7.190329301715731,6.304536300528519,-0.0907531481359065,0.23356364092689672,0.6377039744560123
26756,3.050,-0.09794134020792525,-0.8047652930573626,-0.5074551839885371,-0.2919752613009071,1.0071106849443232,-16.605415290192774,6.5711363984735955,-3.106343492366225,-4.666309870570328,5.993486377009625,-0.043534539631392415,0.2293219892799621,0.6457001692534087
26757,3.058,-0.09926693392051254,-0.8200717410900876,-0.4912921436278994,-0.2761529375273721,2.1075594477739252,-16.339864602892344,7.370496242505824,-1.232080360285635,-1.7683467830288615,6.1982635251520755,-0.016676120906741223,0.23631296080021094,0.6431236210165581
26758,3.067,-0.08865034945871754,-0.834240058083437,-0.4763390300295499,-0.26322190163491094,2.534752788773671,-16.81782385951425,7.820834970723511,0.3903619146430008,0.7294156618745641,6.317770343263713,0.013576958738271007,0.2550784022173598,0.6288341684283123
26759,3.075,-0.06864827387716903,-0.8472850861438243,-0.4621770816871938,-0.2525623535981691,2.2149557024574484,-17.82062102438677,8.298607764466931,1.7011065981982072,2.646101132341499,6.40902172751212,0.021459540881344757,0.2677915821968823,0.6227751048674623
26760,3.083,-0.04167446583173756,-0.8591161790653337,-0.44836120915526045,-0.2432177129459409,1.4819006149293084,-18.183541092793682,8.504264135952878,2.7298057868750716,4.021451363341096,6.516976475192306,0.036602274868382134,0.2914988674424033,0.6050794471692214
26761,3.092,-0.009569306467190017,-0.869546517252789,-0.434613147204093,-0.23432604418765693,1.0294005552482108,-17.836427229478698,8.23009200149679,3.560568263311303,4.9294249657394245,6.644381664033343,0.04679658014807942,0.32445166608655635,0.5943837268235612
26762,3.100,0.023897314174127646,-0.87900329435525,-0.42037802166519556,-0.2237508565095058,0.8662863287148226,-16.62790368976145,8.198915422275737,3.911045049212566,4.936361798790928,6.942160671033782,0.05776597390700104,0.35926353975819697,0.5743723982567895
26764,3.117,0.06926192690804388,-0.8976226969883215,-0.3939184682052196,-0.18521479352160442,1.563521585393781,-16.854133543602238,6.758877968217318,3.05398744944552,1.7612592193852805,7.328539421962371,0.10978223055791933,0.4084197196065524,0.5425059692245945
26767,3.142,0.055751566543460314,-0.918268897000373,-0.3787488549707607,-0.10111033818560364,3.7498269082600655,-18.460911189543303,1.088192395445241,0.29470911336602146,-4.546764456083027,5.460029243298047,0.2179242263771217,0.40295437418622093,0.5129826104147536
26768,3.150,0.0459764064474962,-0.9221205394882612,-0.37643613565098005,-0.07665322224283654,4.584335135683439,-17.269294874577923,-0.4351185834127857,-0.46865119512384323,-5.028421121197621,3.919686522695307,0.24389298654380104,0.4088975489657367,0.4939862635618345
26769,3.158,0.04199229500287109,-0.9256996378094788,-0.3716213499586408,-0.056695678624646674,4.131237713377772,-16.203401604081655,-0.18488798560613326,0.017338281790803673,-3.247773110495694,3.9200521802940176,0.2718883217517679,0.40987215576705927,0.4925814682308377
26770,3.167,0.04628477742471224,-0.9297343611155217,-0.36294269550153563,-0.04152513602551932,3.7258062236924494,-16.04284247670046,0.3550591284220185,0.7880738762255007,-0.9131223486651106,4.246089800005478,0.2856136594341246,0.41473941315401014,0.47587081300975204
26771,3.175,0.05950245596735069,-0.9342591325954386,-0.35025436978278657,-0.030679102723769457,4.056234959255769,-16.372287330287115,1.3170188433131724,1.7555432862683813,1.4161898694432309,4.713679195001136,0.30209802912964506,0.4089362386884581,0.45866790677264524
26772,3.183,0.08115585263712374,-0.9388925176079921,-0.3337002198150652,-0.023210585038841686,5.60116751124944,-15.848081366595007,2.783525978126359,2.7578581183659487,3.497932715125539,5.227661105934535,0.3138191426448032,0.4209063472577898,0.4520889066086813
26773,3.192,0.1096139720016834,-0.9431898226068178,-0.313042969044226,-0.01954060400576221,7.501008359695094,-16.06937492883234,3.8456311959336293,3.4603668004167702,5.43583856776884,5.6206098595008935,0.3262733413406665,0.4319897975421309,0.4274273511323082
26774,3.200,0.14356316712776682,-0.9463865424562057,-0.2887166269886585,-0.019617303645649675,8.333951160521595,-17.11754614632537,4.742690426663216,4.019808844048619,7.14539000230471,5.814014021243778,0.33302666428000927,0.43543353297722126,0.41424179305146314
26775,3.208,0.1785807159689889,-0.9481953216919496,-0.26191487638934463,-0.02086042500664527,8.344538373343374,-18.109838331614082,6.488594639065882,4.009474371808139,7.7508358319524095,6.017058812661323,0.3377379719662764,0.44861955925308167,0.40025841695296827
26776,3.217,0.20815888789180598,-0.9490145950504403,-0.23599713039091386,-0.018615322187653268,9.415479003837476,-18.986573338079527,7.849959404936232,3.1983814302633315,6.462438207908977,6.10968530738131,0.34993099311270803,0.45009513300257403,0.3843046052908634
26777,3.225,0.227325673122667,-0.9498665594986082,-0.21437357917011207,-0.010978435198142147,10.879643889309554,-20.466555397915762,7.252017192850521,1.713510635900997,3.8958523921205654,5.78053026848224,0.37206656488498435,0.44599906767764597,0.3685524137846428
26779,3.242,0.23294736630799967,-0.9535260206139315,-0.19036785324562505,0.01684437570761297,12.080567262759697,-24.36472823262547,4.726544885213194,-0.5277623101058345,-0.13388331142969528,4.442894791004635,0.4033336130041621,0.4328397655516068,0.3568187836737921
26780,3.250,0.23081729193331726,-0.9540403424021061,-0.18814154141450784,0.03366248962889418,14.634292475882322,-31.063101833579065,0.15606880803211234,-0.442702230870478,-2.553968370072547,3.1647865795695753,0.4240368307072109,0.42355975193628553,0.33171017630282856
26781,3.258,0.23841930808667794,-0.9515737562454338,-0.18763512851372166,0.04956489184962668,17.55734642912138,-32.468100482349314,-3.2834983955209016,1.95069631650995,-1.8655400567782308,3.311587351686582,0.43215595179222743,0.4391361308984609,0.3109245081016913
26782,3.267,0.2621961682667872,-0.945776127082996,-0.18178088660364705,0.06096225103861739,20.062584185048966,-28.56315292414257,-5.422103021593299,5.005703182749265,1.0174461856133188,4.200405832596752,0.43996709127798644,0.441517311015897,0.28952738317319254
26783,3.275,0.30190597148358894,-0.9367408170961019,-0.16488399891241975,0.06467374174521813,20.96092800939249,-21.74161543830849,-3.2220968470080877,7.533792360627935,5.255749595450115,5.333057231023263,0.44022576245163686,0.4526155198771594,0.26181938650439207
26784,3.283,0.3446938182930492,-0.927093824031187,-0.13323617202976865,0.0627003631300748,20.866429481909382,-22.789817581839277,3.9148922386922167,6.911213328771064,8.830878728650664,6.539359471297771,0.4454311895238047,0.4592299726294662,0.24230435276392023
26786,3.300,0.39097360749915855,-0.9155013916235324,-0.04786443901266161,0.08188916688105559,34.9050863494841,-37.405850539453496,10.058887689242647,1.4869390088794157,7.7035109986844095,9.036233046627101,0.5097310334065132,0.4036978579299891,0.2196291399594039
26787,3.308,0.3957888985855088,-0.9114773037741745,-0.019978188026812307,0.11027757915458887,54.708659081002,-57.19746381201151,8.028779315495685,-1.8467161836485508,1.3095858198791237,9.387214634154152,0.5399028836424364,0.3821268553358621,0.18672586254063273
26788,3.317,0.4015257043172831,-0.9051406262653544,-0.01984236745724037,0.13821662675005517,66.33316338218802,-63.54639856907704,-0.2686248066760895,0.655831902554755,-3.7858162066200767,5.864782853812664,0.5498816840554511,0.37014119463279443,0.14683800952563542
26789,3.325,0.41398747134269515,-0.8960179056902815,-0.04659822449778101,0.1536062880462185,69.6967713260328,-59.40081964611848,-8.4117602204607,4.615052421615963,-6.847038605861973,0.5160885511472056,0.536409066104021,0.39853346066774537,0.12063263085405589
26792,3.350,0.45668595688600105,-0.862763726187818,-0.17589476833187298,0.1270343261922004,49.29278291905011,-37.519502239448904,-18.654222504489063,7.0903777017095155,-6.610075199440835,-6.03818793165554,0.4122138803531314,0.5145048430667638,0.04773061930300584
26793,3.358,0.47114807893527827,-0.8511117425760784,-0.2027305102389298,0.1119313610342141,24.557050261213607,-18.61274386565051,-23.6583998774361,6.162710332629979,-2.6683709681302927,-5.369468517793288,0.3800860045697349,0.5455816180476826,0.03713174659385903
26794,3.367,0.48495325406404993,-0.8409849905095841,-0.2203521102083836,0.09491856845210431,17.37257716771894,-10.264573663258535,-22.644882566963222,5.252738344058134,-0.6605301217773325,-4.837927733986634,0.3568900965910094,0.5567875170650447,0.035582559395551557
26795,3.375,0.4954551409638185,-0.832691528443664,-0.23475783763814043,0.07770314934507329,13.343543715606026,-4.839803722356649,-19.907756630012592,4.159255204830217,-0.24214662537958578,-4.665572675747501,0.3203683770301331,0.5845099016292153,0.0265720127365194
26796,3.383,0.5015436128360331,-0.8259793691632695,-0.2496593573588086,0.06230803658608988,10.585948350892288,-0.4821188990102868,-17.251930260249406,3.1610199597690087,-0.8876711732631513,-4.51454514226826,0.29753423081683117,0.5875954634341211,0.025198333478149707
26797,3.392,0.5032147808331053,-0.8207449222100147,-0.26601304405507814,0.04888473596244942,8.916721868614328,2.2776970242423706,-14.05537374432766,2.2583434013140784,-1.7532965679877288,-4.375699110378942,0.26781431787866355,0.5922790477215403,0.022636485649037842
26798,3.400,0.5009355975913344,-0.8169224236885407,-0.2834326766586163,0.036975647969785856,7.5878443991481,3.2209845151168093,-11.149665907258496,1.4379360271983281,-2.4743494823524155,-4.310205738222037,0.2437450714330031,0.6080151686374473,0.022609733606384408
26799,3.408,0.49619172749011536,-0.8138791230317728,-0.30121567784539166,0.02576156213331683,7.062740592357305,3.2152550769559385,-8.582089393317728,0.9242975575505837,-2.8463395481634564,-4.256124245188254,0.22122743733566644,0.621640334549771,0.04737239038840497
26800,3.417,0.4909420170862294,-0.8108308061955318,-0.3182903931939991,0.014851437102796386,7.1257840153781915,2.7290661478251965,-6.39897515980629,0.7788249496106394,-2.7961473803882035,-4.162312167409533,0.20302491051565863,0.624379688297392,0.04216884614544756
26801,3.425,0.4866599260939826,-0.807307245764663,-0.33377323883806154,0.0035429233162164813,7.78637635953988,1.77007155802968,-4.601122568914932,0.8777422800093939,-2.3493592269206562,-4.055078264060205,0.17402814438733746,0.6365735561909872,0.05243987671991738
26804,3.450,0.4745897017552906,-0.7970376513871199,-0.37112001362198,-0.04201824304216249,11.940224172077631,-7.340016436509583,-0.22680299188051872,0.5697839175558749,-1.3809348235525478,-4.64546896036002,0.09662684101088044,0.6465156752102207,0.0827526506872095
26805,3.458,0.4670604146663476,-0.7960580576391607,-0.3797987121212108,-0.06244258315073197,19.978718934012495,-23.39913360338285,6.2257617834266865,-0.8590338388428072,-0.6168075424205339,-5.479230297509041,0.06984999538828046,0.6444729270832014,0.09743103978797582
26806,3.467,0.46009210988682553,-0.7964746224138634,-0.38422211747223267,-0.07947824051737282,27.087757581992875,-35.939486187545796,10.309938847790631,-1.2895952340524166,-0.10385643037105592,-4.355648331927599,0.05528070564336827,0.6469203146299949,0.11843608395168848
26807,3.475,0.45303762960529137,-0.7971159717794036,-0.3891755790653905,-0.0889123296000833,31.067578302459886,-45.17341050594868,15.064697963027204,-1.0290173525257285,-0.915796917736863,-2.718142551315947,0.03966313461598563,0.6518685380232242,0.1384453486766912
26808,3.483,0.4443064417618823,-0.797169794066109,-0.3981839088361198,-0.09252934659599613,31.123442160448352,-59.20335639537051,16.336182188530245,-0.5936263528226999,-2.405282649347911,-1.914234230328482,0.040024962620077036,0.64399309827681,0.1489327098036565
26809,3.492,0.4350462764078064,-0.795574740395389,-0.4111074400398575,-0.09373495917952554,32.78480023228354,-71.56636020514055,12.339194438964233,0.056204413349304184,-3.3811061732103473,-1.7993487042034444,0.014984597247942941,0.6380287853555157,0.1534905959098202
26810,3.500,0.4257516655837614,-0.7920326962289272,-0.42677102286059554,-0.0963650424350579,34.344283661138356,-74.55780577955537,8.014202745129419,0.5482182357006888,-3.7271824666400986,-2.4516785421730094,0.0007225284161236676,0.6483663712256444,0.15448214320130493
26811,3.508,0.4140471353191562,-0.7867719281283246,-0.4450782915566036,-0.10705240412197073,31.33585180513276,-67.2722538968098,5.688994058384952,0.31645456565440083,-3.760357787601056,-4.578197752315596,-0.02679537075113657,0.6314065565363408,0.1736592126411786
26812,3.517,0.39959442814902063,-0.7803599505521509,-0.4641653464586997,-0.12614742055776482,22.601886950386994,-55.45443198670657,3.017132619447177,-0.30224618436021444,-3.5151032545207057,-6.626739569070003,-0.06681891473473604,0.6363695385064915,0.19677225473237725
26814,3.533,0.37543879802754654,-0.7648399443594169,-0.49457619431552435,-0.17163902954831817,7.755151448673313,-40.72938923244742,-1.7482696040103265,-0.39123793146793107,-2.194832896384303,-7.067812503530392,-0.1386111780136133,0.6078378751027729,0.2306229251723442
26816,3.550,0.35333403472528546,-0.7476641695055115,-0.5189281860608929,-0.2164876145508935,-6.499586585402841,-29.171472214889306,-5.014768559088122,-0.4720726543494657,-1.5956105759284402,-6.781991525486915,-0.20715631403435242,0.563229468733905,0.25192506049581626
26818,3.567,0.314845569034695,-0.7326956858134064,-0.5480130836141993,-0.25241030057685543,-14.485636359363792,-23.565498720006605,-7.121496717733714,-1.1125614987100818,-3.7416750456710415,-6.330548514329319,-0.2620837385785517,0.5198152389845914,0.2915798055884632
26819,3.575,0.2916441584399723,-0.7265283453842875,-0.5621709642155132,-0.2665784222213236,-17.74969277398606,-19.45594884940831,-7.04259868921586,-1.5274851718358107,-4.746138409996647,-5.608323928926435,-0.28348024051676934,0.48947096634297427,0.32073921075026324
26820,3.583,0.2684896646888907,-0.7206990152705748,-0.5747968716696081,-0.27949022462709344,-19.35032388297975,-17.432867725802296,-6.958826765046255,-1.6592137210171278,-4.665483983001514,-5.203153392545655,-0.30263819438104306,0.4712726993033526,0.3380612912023112
26821,3.592,0.24772695191165126,-0.7142048823706493,-0.5856931471272634,-0.2924145699219716,-21.38344489143127,-14.908209204477549,-6.774681399437007,-1.5233192367092439,-3.9934022830129337,-5.048708588741723,-0.31957384719902415,0.4345792159604348,0.36142362300995745
26822,3.600,0.23116553015786057,-0.706344383493897,-0.5946062433102934,-0.30673037832905037,-23.272737237392402,-12.606497556574,-6.515609781097054,-1.2668634918295683,-2.8324709874535543,-5.1077204023993605,-0.338315564866803,0.4150348064143952,0.36654675272586085
26823,3.608,0.2198604075877289,-0.6972516206288222,-0.6011680786991751,-0.32264302233115455,-25.406151222798375,-10.941012682185878,-6.4691886803735095,-1.0059485518767404,-1.3886329523607612,-5.134701629614858,-0.36203217487935535,0.3860689864370599,0.3797027241299265
26825,3.625,0.2119053742877532,-0.6775237619309232,-0.6068609495258865,-0.35745972123789893,-30.401758617496753,-7.924139208421798,-7.568055391704221,-0.7701768816947565,0.5758025660160734,-4.849203532213149,-0.3960346483219877,0.36657802519066285,0.37732197398873374
26826,3.633,0.21197026630972807,-0.6705799416273244,-0.6049611226806829,-0.37338075490389944,-33.473463826773504,-5.254084140475526,-7.780062810894547,-1.2223983558773355,1.694134956282804,-3.6753197319504296,-0.4018639078725113,0.3526812376624756,0.36412058362989164
26828,3.650,0.20936404554706423,-0.6737127823225242,-0.5893117695730207,-0.393686958902788,-33.20550325639576,-3.6033712339832644,-7.185158691368531,-2.5857190007614776,1.2947040176402356,-1.1617991311045592,-0.4092139315911917,0.35176645872565304,0.3630961385943243
26829,3.658,0.2040461773040207,-0.6853523269752485,-0.5753984170071437,-0.3969559259450614,-31.001049740724405,-4.129342785679747,-6.023011391051863,-4.338899736256335,0.22206094973293342,1.5288401317884721,-0.4046002056484594,0.339456521663894,0.3831105250500753
26830,3.667,0.19589260243624101,-0.702533307848073,-0.5576970171592155,-0.3962916561404179,-28.83970314021866,-6.898073716807311,-4.400145474369977,-5.416565144669029,-0.5300945914012856,3.0481015038846557,-0.3678068869354225,0.3538831903488977,0.3899466849320749
26831,3.675,0.18417500873054296,-0.7244125936722466,-0.5362876624597381,-0.3920478330275826,-26.165510703475658,-10.005613222264499,-2.6150664105680015,-6.530422667307046,-1.3412313346012028,4.284278939405095,-0.35017388270085265,0.34753477320441173,0.422241071483295
26833,3.692,0.15224371033433856,-0.7769405061872878,-0.48318209804161855,-0.37379187075319703,-22.41253348368709,-13.896484035844065,0.5824124126779434,-7.810292986746513,-2.3314986806168547,5.782927297147603,-0.26442576560619924,0.34792903416491505,0.4817672882265168
26834,3.700,0.13508253878080456,-0.8050026977613729,-0.4516302891797892,-0.3602130566884323,-18.945289204590196,-18.706782184891974,2.3742803267876824,-8.544325402686011,-2.612487269116285,7.074813560677244,-0.22081078913001967,0.3406630450795853,0.5070314470117732
26835,3.708,0.11893708228772722,-0.8324573924951926,-0.41740393051391966,-0.34444537873009495,-16.51714942922784,-20.11647130780726,2.934220270609569,-8.61614618347151,-2.477396800896931,7.738114743502392,-0.1645456296404265,0.3342119208418462,0.534073816553618
26836,3.717,0.10354959749494408,-0.8586773587058144,-0.3810297664406875,-0.3267521868186902,-14.786447437387734,-21.34519200769502,3.18720321512689,-8.62726253747888,-2.3347790413381486,8.203876195139822,-0.10538662063629241,0.33309810728337463,0.5511225979102855
26837,3.725,0.08871451294365465,-0.8827250505274287,-0.3436119610174832,-0.3079887020821355,-13.95991866056381,-23.191961612683752,3.092093473068574,-8.500779030430373,-2.261206531192515,8.340615288304747,-0.05584861824872678,0.3062236912814733,0.5772916973076004
26838,3.733,0.07474589440190141,-0.9040896852731903,-0.3063865766497916,-0.28837849764069684,-12.641247677544508,-24.52337863094929,3.0282508623919586,-8.12852246995584,-2.1621309858575075,8.271835595927888,-0.0003778827209207094,0.294057341094514,0.5908169548951736
26841,3.758,0.04548326048582698,-0.952220391972391,-0.19953979624050547,-0.22669686333035624,-9.773804212686384,-23.896371226766636,3.420227621177709,-6.8891904309411975,-1.7406151982759495,8.210519218431209,0.1429728429604502,0.23496481884658643,0.6062306511195296
26842,3.767,0.0401794233596394,-0.9636275247032848,-0.16521246205996284,-0.2061854746406573,-8.038968964116336,-22.358498539879253,3.479126900785003,-5.72318153520664,-1.1323264679702696,8.154070824084071,0.18522597519105238,0.21769329631668718,0.598941327642319
26843,3.775,0.03753513298495487,-0.9728782732342783,-0.13103036718120684,-0.18689575205672496,-7.463070824965589,-21.705927110949897,3.38633187495619,-5.20107071953309,-0.641112488340363,8.16238116415919,0.21363146968276303,0.1906555518002181,0.5972654049285233
26844,3.783,0.03764544967525148,-0.980176624681445,-0.09646749260730293,-0.16891011638412526,-6.879277728254651,-20.757811646763294,3.5443912898906835,-4.719239212495411,0.009669287105629547,8.244284084958158,0.2627774770493152,0.1704025710606769,0.5797811967658363
26845,3.792,0.03966458447076313,-0.9854993749160588,-0.0611590322274474,-0.15322296027626545,-6.249792680652692,-20.313783876506033,3.619081062238438,-4.466545940362083,0.7261423891662677,8.209822055027189,0.27652138306853546,0.15306982416426718,0.5842735720729401
26846,3.800,0.0422662729384469,-0.9887893620766037,-0.025219366602142586,-0.1409721361270474,-5.041980920097695,-21.1975912909393,3.0117134315860015,-4.432518314720057,1.606147877446739,7.85264994895607,0.3093973678532605,0.13072483650409603,0.5751915506973829
26847,3.808,0.044703610533710324,-0.989880008899907,0.01082803567646739,-0.1342457032048307,-1.471347774430364,-22.977582703846547,2.327869502219828,-4.466341901529528,2.731401640344556,7.105710438526705,0.3177463229412312,0.09465337234035871,0.5738574642849902
26848,3.817,0.046835458607260946,-0.988688215758165,0.046792780134928734,-0.1345826421394255,3.303690078071533,-25.71244310730605,2.456979123625457,-4.436108144650119,4.223861297517591,6.114733719612213,0.3220069889981183,0.06560100034870213,0.5725474536802185
26849,3.825,0.048784240977321,-0.9849349954158361,0.08442389438964144,-0.14281372025670597,5.287075705741876,-29.79118452635132,4.679641885856315,-4.576181839550008,6.047915404990995,5.388766084462166,0.3091393707812826,0.0534071324551069,0.5833628867353141
26850,3.833,0.05045268607759112,-0.9779113913072703,0.12542211590879523,-0.15941496184485376,-0.40566348082382986,-37.96411839440813,6.0928886847175905,-4.8823580100964366,8.270201171940442,4.881567782728289,0.29669630745998515,0.018004153260139124,0.5923076064097822
26851,3.842,0.055391296596893264,-0.9663490163786563,0.16877937088973932,-0.18605081770146145,-11.504738824818494,-48.586363937717586,7.1431619827211605,-4.2814757310104365,10.909239572272966,4.584743762571944,0.25391654832133576,0.008151379259248063,0.6121194366608004
26853,3.858,0.09508612680729209,-0.924982523665386,0.2595783487064357,-0.26073941068668893,-21.579614131881264,-42.870999396138735,14.07844129437716,-1.3895982992887155,14.469526502346438,5.989236922734391,0.14763685057427928,0.014919194400429311,0.6301439205376739
26854,3.867,0.11825419907826705,-0.8947015416544695,0.31194706158420865,-0.29700863039725206,-18.69366496819369,-15.661029437967139,24.56832460235847,-2.044396078966392,15.908514718581927,7.810497410681328,0.11181482293521601,0.03204154404748609,0.6366332966726408
26855,3.875,0.13540336028948075,-0.8629676652981184,0.365823237195798,-0.32113252373407936,-16.625110457562265,-11.70838877130973,24.146216924757187,-4.242143606882982,13.781703229072077,8.242315172951294,0.056634076289399524,0.03355720402171038,0.6432217726228364
26856,3.883,0.16087625155112337,-0.8347263834165067,0.415611270034948,-0.3234470107068495,-10.09071766387489,-20.191887786156116,25.66609760699524,-4.3012645152512485,9.025088450514733,11.242226039904944,0.06827132896910683,0.03596869484980391,0.6462452773479819
26857,3.892,0.1981131677175353,-0.810331299082042,0.45829528232213057,-0.30672429428757814,-6.399285101245661,-30.968621689167065,23.66255360075893,-3.4800124924939384,4.329334149350596,14.2992925680787,0.08012786180855863,0.05484601592908459,0.6393924121463173
26858,3.900,0.2422925173730497,-0.789553244327244,0.49029108110676833,-0.2784145581403931,1.0709954562304682,-44.672570403539126,18.41117141597162,-2.205082378804722,0.5947797358849992,15.378132734687757,0.1317779064604261,0.05058462264238204,0.6257941944072876
26859,3.908,0.28486457990795333,-0.7737464793095284,0.5084784069671334,-0.24823026914166102,8.01448806138786,-60.157257143579756,10.474075171500449,-0.6886759168531922,-1.9717936175481028,13.638592637781807,0.1835239462120515,0.06999042837646853,0.6134720066284236
26860,3.917,0.31467905598883306,-0.7678727291895484,0.5119460238001021,-0.22194556135286178,11.089081218517913,-63.083790102045086,4.146317514989919,0.05305197326933586,-4.009992360899844,8.773515107457074,0.23146433901733085,0.07705458983612795,0.6044486540983571
26861,3.925,0.32946034364168647,-0.7745104062455788,0.5027251167409228,-0.19712171261085454,10.481450572927285,-52.61668827797409,3.9778942033039377,-0.3667490980685573,-6.4203319274639705,3.758774696292521,0.25801352618460105,0.08197110601668949,0.5822628907306812
26862,3.933,0.3362360548154694,-0.7890651317083777,0.4868517159877862,-0.16521785618969212,12.100079224957657,-45.44993719517705,1.9712958742701332,-1.8198055844219378,-9.004964999164141,1.7843136736257406,0.3196515499013973,0.06104824380636807,0.5640719855616916
26863,3.942,0.34388176370065215,-0.8025138569275635,0.47051334627189023,-0.12780466741634872,15.014148144239542,-43.145605202485676,-1.68533057920684,-2.398532795249385,-9.847061871250634,2.6512384171478964,0.3423094503866246,0.062252195939996785,0.5401305313328556
26865,3.958,0.3696068721218356,-0.8076248662495759,0.45423347921013724,-0.0693165338164115,18.559579085728632,-33.77764681075753,-2.156230560916239,-1.128695432250403,-6.496714670753657,4.389790284791363,0.4166226126661906,0.04564417531602055,0.487947718083344
26866,3.967,0.38325713092211683,-0.802002734830269,0.4551631436181325,-0.05226947114498336,18.68790738233229,-25.923117576344634,0.0910537177000828,-0.0024104841341277676,-2.5285709589265637,4.754908774392349,0.436605203219426,0.022806599719743442,0.4755191778609805
26867,3.975,0.39550834086338427,-0.7942582420942623,0.45925457014144877,-0.04257037675448691,17.216242086636914,-24.031940821351014,1.456702277394205,0.5446420440444194,-0.6900195792524396,4.208447480742393,0.4499436778254154,0.036361368696677956,0.46726673446536277
26868,3.983,0.4079943172714878,-0.7847695462346977,0.4648272903274104,-0.04016200373035838,16.75271223700387,-22.730756984895685,2.690533109629746,1.533892688821797,0.7602945935128173,3.632165315040009,0.45340172041455595,0.02850348053120639,0.4562223882272082
26869,3.992,0.42098352501917835,-0.7739768552112749,0.4710170458670881,-0.043308679988356975,16.492331960113223,-20.87571969952682,4.456870927296576,2.405123261799988,1.7338447555298448,3.2292478000369678,0.4494356982293776,0.051813902423821424,0.45106198674837594
26870,4.000,0.4337787148472065,-0.763602379168134,0.47591870524468244,-0.04742171519986181,16.12986124529214,-18.19644018653207,5.771790009651739,2.6176001179306065,1.6324692255281144,2.8932512030724418,0.46230207995493316,0.04754194006622951,0.4500130982886864
26871,4.008,0.44583601202407597,-0.7555180694166647,0.4774989477393152,-0.0491675917168161,15.99528379934618,-15.868477340180691,5.787502935579034,2.361385291750335,0.580164913955403,2.5594437511334296,0.45658090345618446,0.0643406162997908,0.44842345859873173
26872,4.017,0.4569360351090964,-0.7504109303268925,0.4752218070511703,-0.0475092577054923,15.480836791719254,-14.426162933415043,5.03738913379719,1.9206643722102117,-0.7415697344431329,2.1723300203848597,0.4635187244013861,0.06441659924322277,0.43831780787236135
26873,4.025,0.4673265859614823,-0.7483643133925156,0.468711026552861,-0.04320520896717414,14.910935652760747,-13.19145166077103,4.2905173618668435,1.656274718703543,-2.0562457124022164,1.727951367068714,0.47925086532492495,0.08168672527111127,0.4217923396833183
26874,4.033,0.477725340925558,-0.7485332436469672,0.4583280735424121,-0.03757470952397093,14.221975559403397,-11.324835498585683,3.4440707715805394,1.6914739988430199,-3.0951985586097535,1.3165609879929685,0.4949889377648099,0.08363095581090953,0.41070586967166534
26875,4.042,0.48877405617492686,-0.7496200501083076,0.4451379741841769,-0.031966958334122525,14.3992542260423,-8.994087217293183,2.4965015647776942,2.002272058208881,-3.704727460190613,1.0842273172599968,0.49712803238780146,0.09733769067470775,0.3948720379347655
26877,4.058,0.5129417164485334,-0.7513092135084839,0.41459703542753595,-0.02312054149008007,16.127018507547987,-5.6948419564928985,1.8085848990323652,2.5341636072305405,-3.960549389870679,0.9197230853912909,0.5185616110380218,0.12681783967512364,0.35655996638870086
26878,4.067,0.5248271157114528,-0.7516818940132208,0.39888764965276646,-0.020481010257949617,18.15609638492364,-3.2437351916894763,0.834689466016672,2.823977413481905,-3.777812405186995,0.6555710111728648,0.5393991438688285,0.1314986309585215,0.33931613464827753
26879,4.075,0.5353901789471373,-0.7524304505057255,0.38318507834369014,-0.019364120776416187,19.205023390656887,-2.3206664666054992,0.0777185175523325,2.810981522559295,-3.571923927280701,0.22442201967972206,0.5380753289127048,0.15197676752433695,0.32366254251217275
26880,4.083,0.5438411413643638,-0.7541690487629052,0.36753797966828544,-0.0195369483009991,20.18678746631483,-1.7010386126480685,0.03839143844242919,2.5702811809359014,-3.4058054278924628,-0.3430347477597943,0.5446657108234836,0.16700990325478515,0.2982135983121836
26881,4.092,0.5497887838098533,-0.7572789203301744,0.3519483883180036,-0.019830834092588154,20.937509147249095,-1.444425095209032,0.6221825666068247,2.0846684631179895,-3.4012020518472204,-0.8133178778440697,0.5418305876228204,0.18319074981519803,0.29095666962953326
26882,4.100,0.5534671945948774,-0.7619707767357162,0.3357195510014565,-0.0191567999265676,21.683051434008387,-2.173781031023688,1.135525890851891,1.5120326784398657,-3.685789946607657,-1.1437106864469075,0.5431226684794402,0.19885368079169452,0.2739839262910465
26883,4.108,0.5555056251082868,-0.7685535970255382,0.31695763566793345,-0.016635088336162222,21.81418251185955,-3.5599820845003514,1.7354783924113744,1.074518715940945,-4.489814314464027,-1.4264471246321668,0.5382496628980151,0.21144441203819586,0.2691937180238159
26884,4.117,0.5572713073991585,-0.7766491230833343,0.2934339195339571,-0.012702929995078315,21.46788049369872,-4.753089750069213,1.7635882365315598,1.1265646344500204,-5.690750026062695,-1.7222329443905544,0.545729048589433,0.2318240310167901,0.24713793981906174
26885,4.125,0.559082466704566,-0.7857002228171311,0.2646228183426185,-0.008758955477577983,20.70004723016256,-5.634184097597747,1.0383722201419168,1.51348543365216,-6.808743806722326,-2.2191570308990594,0.5363991743563713,0.2437771909503752,0.22101659791852488
26886,4.133,0.560564773222575,-0.7952630365363065,0.23082738104308245,-0.0065236417565681494,19.503347814572653,-5.852004006253121,0.016266431241963673,2.038633881014067,-7.636932593459644,-2.9675059539342055,0.5453732113330471,0.2729562011810849,0.2046418631052488
26887,4.142,0.5617790200304371,-0.8044324445597185,0.19301085530407824,-0.006291623646253661,18.4565724041114,-5.455209647751191,-0.7142663256061957,2.607532278406,-8.195092817806197,-3.6468177633805476,0.5199494408705577,0.2965107269829274,0.1758752175014217
26890,4.167,0.5598296722828212,-0.8251481326294102,0.07349734690260654,-0.017872807507065998,16.111780410862696,-6.010517383418415,-1.2420392597157508,3.115242837582457,-8.037672924439065,-4.551201772066973,0.4780941945941943,0.3976242677389655,0.12371232741819453
26891,4.175,0.5554495159133132,-0.83046722413419,0.034519090642046044,-0.024666927083962148,15.7732455926111,-10.060907699287439,1.1053150101623253,2.7814023967665644,-7.555519022905242,-5.247416202707283,0.4385377969781344,0.4236395431625122,0.11193316205142834
26892,4.183,0.5498038282117877,-0.8346331268197497,-0.003152685582345267,-0.03306591405617143,15.82580930246325,-12.758483003650353,2.6156673520399947,2.6726619956954014,-7.121278628468393,-5.544868294829936,0.41735648181492035,0.45548192419741085,0.10298651634385685
26893,4.192,0.5425618154685247,-0.8379784594469925,-0.04034774769943526,-0.04231828391992027,15.167573440312905,-14.422770193280375,5.497045610023159,2.4987576731742154,-6.971194214946526,-5.7452752832945455,0.3846463407167362,0.4802200575479183,0.0961161326134177
26894,4.200,0.5335356176207122,-0.8405291889024804,-0.07938437283232885,-0.05048315246735497,13.847824940037682,-14.657849917251571,8.499939652073683,2.4060576394705886,-7.54851769468659,-5.819830511566866,0.35588981008512904,0.5031723058103487,0.10035145266617318
26895,4.208,0.5232401077514327,-0.8416380895343706,-0.12069099393585422,-0.05743517970704017,13.406455889566226,-15.141909987384977,10.658304970885132,2.5501211318226162,-8.168548025078037,-5.7901584198445235,0.31271949113274994,0.5171414897211316,0.09767899032286605
26896,4.217,0.5122539302606505,-0.8409160348129647,-0.16214088675091254,-0.06454816938213813,14.34284505950745,-16.20879514288053,12.286178591354073,2.671641076481708,-8.190943929682641,-5.8810456008104675,0.2836866993519545,0.5413736730606226,0.08291327582276135
26897,4.225,0.5015953290300293,-0.8380136492895525,-0.20140303105317603,-0.07464628980905473,17.281108055543726,-17.002454480918466,13.868378153712829,2.8464646900452326,-7.349734220565364,-6.250840877819313,0.24487614957232695,0.5623964493601757,0.08618294751961537
26898,4.233,0.49240389581597066,-0.8330833359852337,-0.23601376295110912,-0.08836324115053151,21.151492536896974,-20.16457771993298,17.014026355126056,2.8966398978152004,-5.898826888443893,-6.548352188370478,0.20498428850549436,0.5800423005991918,0.08079315236159167
26899,4.242,0.4847492214941527,-0.8267162609734449,-0.2654006265200675,-0.10545578953123491,24.586572998877628,-25.619093241134184,21.428084736695396,2.791481969763622,-4.362260686050371,-6.7076388958663955,0.16725428286737257,0.578385846754189,0.09109260126612971
26900,4.250,0.47673442255752224,-0.8205127684550575,-0.2902519776676521,-0.12343774386701926,24.26624729069811,-34.27182443383517,25.77872635551605,2.1914209895761476,-3.4876216020925117,-6.566833597875004,0.1265304054688792,0.5936906041005007,0.0921917806401456
26902,4.267,0.45075089965157,-0.8102769837252495,-0.3385623747640861,-0.16015728051673045,23.570731010307988,-45.63777986930166,30.467728239175834,1.1559938197252007,-3.931625300232316,-6.872481394680853,0.06315270086093032,0.5919356326682769,0.11344144583786424
26903,4.275,0.43469816428892544,-0.8049417850869247,-0.36339590986416626,-0.17620908398521623,23.94068876542585,-50.675111459197396,34.42641883515703,0.842321029576613,-4.676238825426682,-6.625276545318893,0.015094861704839046,0.5856159391208189,0.11571895784997016
26904,4.283,0.42038286635049543,-0.7975150014515673,-0.3874145128341203,-0.19276426895083407,20.260705336513873,-48.86019078904369,35.058695336532566,1.2677000576801238,-4.210527625409881,-6.680702389799767,-0.03223977768698968,0.5916083726939453,0.13462850875503574
26905,4.292,0.4110720067572238,-0.7865406596172708,-0.40898398949567616,-0.21238100754450287,13.815452881110575,-42.42683585391252,35.02305842248908,2.057836525040768,-2.7139645316694123,-7.003908165889037,-0.06665845429807855,0.5851008165409237,0.13847683079289103
26906,4.300,0.4092278470766784,-0.7706076627749092,-0.428611813532461,-0.23449586894014532,6.393889945937841,-34.2540519946294,33.598078860513674,3.442219304269779,-0.9302721504013348,-7.242545732200019,-0.1025974919704113,0.5817400465593184,0.13279401072439384
26907,4.308,0.414729657673407,-0.7492438942430405,-0.44790688064977496,-0.2569286364970062,-0.8332094845297844,-27.945372729424978,30.96052504947131,5.13335262209627,0.42252812823969466,-7.193976607164137,-0.15130236700506322,0.5785938633330981,0.11750525277684351
26908,4.317,0.42421042392593444,-0.7252748790046349,-0.46681986137563314,-0.27586424767016493,-6.6708649963456805,-25.29084952062373,27.4277564025095,6.151920966056369,0.9053503273194914,-6.392491984955088,-0.18715649259982545,0.5729362751895525,0.0902821266616181
26909,4.325,0.4337370456053191,-0.7017633356914823,-0.4860823173769533,-0.28831298389455934,-11.406612052772166,-24.931667082104482,22.68860126215906,6.487046901408723,0.3223792023525611,-5.006411027939273,-0.22429432758033943,0.5575842584968368,0.07190753142855397
26910,4.333,0.4400191173236091,-0.680199913167642,-0.5079934449558642,-0.2926669000730324,-14.046198488179828,-24.658504291665146,17.327588381681437,6.651040113969934,-1.2495777276868487,-3.4631246165563825,-0.2546015119427311,0.556631392782489,0.03833001321791017
26911,4.342,0.4410133819471048,-0.661790545060362,-0.5325467328601176,-0.2897144261722242,-15.55709548674991,-24.05728295900293,10.962174393857799,6.379449360098721,-3.153506705598142,-2.053347354289611,-0.2808640302443736,0.5324476746797941,0.03720514317985548
26912,4.350,0.4357172232352344,-0.6474099136758572,-0.5578741037678044,-0.28246661642690746,-16.811155165305625,-21.976132480203706,4.5200579924586695,5.465840404186919,-4.727382985785781,-1.1176332386880552,-0.3082581155921159,0.5242491644650805,0.01863747502713599
26914,4.367,0.4126967418839166,-0.6293331336361082,-0.6014672675653177,-0.2680640449475971,-15.965369296749405,-17.840581420518664,-2.796240638767799,3.506723316110024,-5.47048054052855,-0.7473065740566239,-0.3427631062774294,0.4914455387037699,0.03913881989016674
26915,4.375,0.4008579741755096,-0.6227941666971712,-0.6172439624672205,-0.2654245679390803,-14.041469845611696,-13.285490719742706,-4.600008365697373,1.9447182806188736,-4.496872431426121,-1.2077572493536255,-0.3532226162526313,0.4948505844161392,0.04062445629456141
26916,4.383,0.3925719971510892,-0.6167729221635577,-0.6275702261814581,-0.2676452890472477,-12.44198371712466,-13.586062296877136,-4.416072610382579,1.1338288501442157,-2.809018502714998,-1.8090682481320888,-0.3668415442940733,0.4703551584728488,0.04180743016726707
26917,4.392,0.39009300861023005,-0.610296909477401,-0.6327098551772483,-0.27394044257345096,-12.6470377465878,-15.524552216293962,-2.3184122690015987,0.7798961917977699,-0.8098030641861963,-2.3222957745802266,-0.3894320099437185,0.46352811841236363,0.03060582475651548
26918,4.400,0.3938364926954265,-0.6025089741294051,-0.6338587318192346,-0.2830174220987276,-12.69963629679331,-17.078592165040426,-0.11908746970309622,0.8563627733332057,1.0960621615183086,-2.6816187606194486,-0.40331136831527065,0.4623163902118669,0.03235719304420884
26919,4.408,0.4025297926057427,-0.5937361892648427,-0.6325648674795136,-0.2920766886498585,-12.263911568937925,-15.832876911210377,2.3443663962474632,1.186117580927214,2.370087567889217,-2.5643434189827534,-0.40651219468183103,0.44787775595396323,0.007007098902632315
26920,4.417,0.4114771309000773,-0.5863405178596297,-0.6308672318743757,-0.2981575147627592,-11.840828675089657,-13.343277180189924,3.3455286552127848,1.224178112254803,2.343737915832911,-1.7543719654870484,-0.41233418031589625,0.4447245902176895,-0.0029235168954696456
26921,4.425,0.41591683370250027,-0.5825892331142286,-0.6308358708513357,-0.29941455701000746,-10.570737298807785,-11.482683330037975,2.849840124753707,0.8809019373060165,0.9617267438191696,-0.5629640809257639,-0.40848848757831147,0.44739992659477856,-0.011027346265424034
26922,4.433,0.4138940914425402,-0.5828935205387106,-0.6333680838055118,-0.29626288191313593,-7.772785483722676,-11.236660807496824,1.3094160837393225,0.37111559857204807,-0.8611470915622907,0.5461349519740683,-0.4181142023216064,0.4349583682311197,-0.0013736533940021999
26923,4.442,0.40662192186293605,-0.5867394935914451,-0.637115649590343,-0.2906527625322394,-2.6668204618437388,-11.724090155710522,-0.21077130316771406,-0.29825967215938826,-2.223675006238264,1.2316373341564872,-0.4242476013376202,0.43472403983596675,-0.0016108175911484035
26924,4.450,0.39519275406465104,-0.5931391656932875,-0.6405170576272773,-0.28591347667425954,1.96854660834227,-11.681280380660596,-1.3942054003956172,-1.210490263093968,-2.964547276673027,1.2542752699819963,-0.429162404859435,0.44302525714393354,0.019023932960230756
26926,4.467,0.372697592215407,-0.604237469999431,-0.6428098645195769,-0.2877308858670696,4.786865491792569,-15.66042439771575,-1.2717578416013438,-1.881504521944863,-2.3838473191824945,0.0689236557632827,-0.4454442770071113,0.4439984674432454,0.04531242639145013
26927,4.475,0.39437221485199325,-0.537100006949658,-0.6947767740060048,-0.27070163093195404,4.781914102101893,-81.44339144721255,24.733117152515018,20.434845775987164,-2.512556809975869,-5.965396144366078,-0.4987531975609999,0.39544796108351987,-0.014393997524686992
26928,4.483,0.4264362188570507,-0.49736237698798796,-0.7060667557463175,-0.2687983512479762,34.5538378151921,-23.944935210715485,52.634444957820854,10.61084743901325,5.110931205519749,-4.3668882906722075,-0.5100698789178513,0.36022148186641184,-0.06616876991162231
26929,4.492,0.42831262392036296,-0.5122230937373619,-0.6967916435981495,-0.2620251969646614,-32.79018903627261,16.790330278922625,13.35456253711854,-2.6653250426890636,1.4112604772546957,3.381619081297439,-0.4939355994269022,0.38395907782259014,-0.05801606864796736
26930,4.500,0.42394671049442234,-0.5274547027534913,-0.6883180135338782,-0.2613025745165184,10.099568760258741,-7.391315110766844,-3.3659622132998237,-3.770499018216423,0.1839794281152237,2.0934940139642833,-0.49014117383757616,0.40418114490627793,-0.04342735002714118
26931,4.508,0.41853066363735913,-0.5354929158845757,-0.6867082131532405,-0.2578977522596711,-8.373550815356749,-7.927633736696277,-14.29877087967986,-1.6229454822128775,-0.9735628919464834,1.625916141532284,-0.48567245562009054,0.4017534989992525,-0.039982523037924225
26932,4.517,0.42813423969713643,-0.5190913050953557,-0.6921807909053035,-0.26101923774899094,-20.913198022872724,0.6328546931329223,-17.135960392034917,3.8227941725902133,1.315537818076166,-2.5987150232055223,-0.48950282733897116,0.38925769877913635,-0.06278344084864773
26933,4.525,0.4366599029034683,-0.4954786765809244,-0.6999908361212651,-0.2717385500737834,-6.051948778051508,2.4799743416828357,2.952540343992716,4.4199140497548335,0.9843422376673869,-5.0922445030552295,-0.5103310433656223,0.36908628699106977,-0.07319994370092478
26934,4.533,0.43047777152957856,-0.486460113645767,-0.7061041504791723,-0.2818907141549045,8.597255835638201,7.3139863113726085,14.469775501156017,0.6887125240744869,-1.827569860750193,-3.338514465337456,-0.5213730238311499,0.3446668439912112,-0.07992611392650967
26935,4.542,0.41938731736577534,-0.49296127518876065,-0.7050008084656753,-0.28996089263856684,27.146068159332643,9.786326741413335,13.79377409037344,-2.8856921069974772,-2.023516622950994,-0.952259785399545,-0.5145494484134824,0.3490570655757922,-0.06746425190374682
26936,4.550,0.4134768141741525,-0.4970539675115667,-0.701151396481127,-0.3006010591032072,29.280434458986658,2.663050743424191,-0.19138166811705684,-2.689479444491302,-0.5624172144403106,-1.6727019923044282,-0.5109953179174123,0.3559973818004198,-0.05389532959940899
26937,4.558,0.4128315299960802,-0.4968506598941125,-0.6985013568141388,-0.30790486214525475,30.75596842342919,-4.039801090600828,-8.86671136448158,-1.099252864174155,0.3407074817106562,-1.476298473946058,-0.513555601891919,0.34914082458609214,-0.05680754599722619
26938,4.567,0.41605184514919874,-0.4927738039502723,-0.6993563094433995,-0.3081811037848262,23.06553024135077,-1.2591757831981503,-3.786234193333464,0.9770969174652657,0.6066317004699314,-0.5302082901457016,-0.5135274918315751,0.34913025551520277,-0.06380712570779593
26939,4.575,0.421440120308622,-0.4871935676398881,-0.7022455502561378,-0.30312017384203677,15.82557741292096,-0.3193904536918262,0.2961717144511834,2.1845007179188105,0.7192764434575918,0.36953989749440663,-0.5141457363039557,0.33888061816140574,-0.062320957361889355
26940,4.583,0.4256552132025595,-0.4829411222190877,-0.7056870063876529,-0.2959583770716497,10.93127930869633,-1.0770997802273292,0.3453329229661946,2.165332111528003,0.36360003759221093,0.9397059324466426,-0.5169384398149348,0.3434150295659825,-0.07600633368521975
26941,4.592,0.42818557472949387,-0.48041658981969954,-0.708514118314544,-0.28959412626734676,8.582809236525094,-1.2226794740109976,-0.5818324910122086,1.6004612659314543,0.09370872267467657,0.9798607870816352,-0.513348601575478,0.3325355969661371,-0.08244723954379567
26942,4.600,0.4302759947308897,-0.4777472846272107,-0.7101584036368374,-0.2868712989018758,3.76362782358586,-1.9234611319239205,-1.909326297226269,1.0738134468542655,0.203562681928154,0.2266446340095301,-0.5178562150753764,0.3446562749203219,-0.08868289893954316
26943,4.608,0.4347972183761043,-0.4725963948384048,-0.7108269833461591,-0.28693035082602275,1.725260853352371,-2.103526405515881,-1.0831746258056232,1.2620423692626477,0.8728318347380286,-0.617272664179075,-0.5140296987745152,0.3348513632110308,-0.0859703567155265
26944,4.617,0.43899576094148857,-0.4661762426824352,-0.7119547609236978,-0.2882409600177793,3.580143562358642,-0.9664218432171197,-0.12656981614639803,1.374784853582639,0.7712151067528891,-1.039136635303108,-0.5304939533421504,0.3339541358551509,-0.10237629055759047
26945,4.625,0.4416557190840542,-0.4613325490496321,-0.7130342387048281,-0.28930032738028955,9.555915857826914,0.5477021150833086,1.3994779291002166,1.0204208245029607,0.45093515756708236,-0.8046537377011946,-0.5238574616464512,0.3244848631322553,-0.1065675243272913
26946,4.633,0.4435497603033435,-0.45862592740024294,-0.7134002174628313,-0.28980337916438875,13.90392520428418,1.0991297274324283,1.5647973199573213,0.5804939341670402,0.36567412535332033,-0.42622443856187425,-0.518281815172946,0.32235695949292537,-0.11395037035064885
26947,4.642,0.4458210767040992,-0.45733871640995266,-0.7127804666911179,-0.2898773401673322,13.826903191549563,1.0032813462730947,1.0448896578042826,0.29653275098743,0.5538824342824598,-0.15285696288513392,-0.5263117722975859,0.31922772490245166,-0.119581066387985
26948,4.650,0.44864197844240683,-0.456836423112917,-0.7111536660954049,-0.29031245391085925,12.508690385599701,0.976687199602486,1.087787078265187,0.04770828903519724,0.7901697212104541,-0.11978152001537885,-0.5298788698402924,0.326963164334902,-0.11363773407764215
26949,4.658,0.4517057180550156,-0.45662377131391435,-0.7086413050158966,-0.2920345468824333,9.835012326220545,0.5089789907058733,0.7719009556295158,-0.21883885049321414,0.9581918819113107,-0.3421869751372431,-0.5167237624751224,0.32771820131799284,-0.1200833401006764
26951,4.675,0.4563430619607315,-0.45764727106797354,-0.7030646781779804,-0.29666486711916806,7.002099627191004,0.7844804408801389,1.3707298766440068,-0.4858757298342057,0.839887595039574,-0.380605872516378,-0.5197291070803426,0.32399367169816007,-0.12387916551081544
26952,4.683,0.45684067091180036,-0.4598502148600889,-0.7000884579840424,-0.2995171652702274,8.503879398349659,0.19950270365814068,0.9980588398382607,-0.9756895518214591,0.4811922359256049,-0.30312827387836877,-0.5140054310305299,0.3310127638702409,-0.12879722961637383
26953,4.692,0.45756260094677886,-0.4625000265838647,-0.6967202344169204,-0.30217727674127853,9.45911846514867,-0.11878029655754044,0.8769108569122981,-1.063638690376723,0.5709105435869665,-0.20518838845449996,-0.5120957337277674,0.3290804989033427,-0.12500577822508097
26954,4.700,0.45912108898205833,-0.46544107640684856,-0.6928126399389882,-0.3042746719428571,9.390463546606473,-0.17338625467254615,0.7343272315137441,-1.0640967817072886,0.8013682694602251,-0.04100807131451305,-0.516423114388865,0.32764640788059296,-0.12979816477225797
26955,4.708,0.4602430303529159,-0.4687701607877832,-0.6892492952606292,-0.3055589932390923,8.962446154008838,-0.09894648274748112,0.10112570276964965,-1.0403306022049785,0.6573013132015912,0.16660668669604564,-0.5095473854841553,0.3455927949441191,-0.12428814741667635
26956,4.717,0.4607269029887055,-0.47182004270179867,-0.6865342218915232,-0.30624717196916323,9.114156230155567,-0.4882711883780736,-0.28597686930438393,-0.8781290630004033,0.41705871632149594,0.24348018317104905,-0.5130271241700524,0.3470177133979902,-0.12794037513673231
26957,4.725,0.46109971463692245,-0.4740478101068124,-0.6847442069223758,-0.30625332321614257,9.371889462222507,-0.9270539561358522,-0.6581670692326967,-0.5692833542649764,0.279534871028139,0.2803179983520017,-0.5057256369065626,0.34658355682437353,-0.12809773720008796
26958,4.733,0.46166731399698707,-0.4750925830098122,-0.683961274000844,-0.30552791103762444,9.344421466642261,-0.9086230378705328,-0.7872544394700094,-0.1629441887981449,0.19658684789797223,0.2888460572996703,-0.5053553448070228,0.3588372525824688,-0.12464896024834178
26959,4.742,0.46257207077121093,-0.4748402229747529,-0.6841238472984207,-0.3041848180717252,9.472988058322743,-0.8006545074697186,-0.5429193737538967,0.25459117796562025,0.1528287557220972,0.26307950748985337,-0.5054883835907451,0.34767143978983844,-0.1227422023813392
26960,4.750,0.4635285472371495,-0.47398319714637244,-0.6849188158745058,-0.30227045899357446,9.793861018290906,-0.43193317349486443,0.29607361941071747,0.49167178498984265,0.08296565319740178,0.3073114641831526,-0.5057004826412029,0.3508182259612548,-0.13293229647611574
26961,4.758,0.4642768944594481,-0.4732918475039465,-0.6858333104809657,-0.30012407866099483,10.054598486624537,0.27217380332266095,1.1844800022016255,0.4849106800264486,0.021055679150558504,0.37157410252446665,-0.5057957701918034,0.3506838116553337,-0.1396341436272904
26962,4.767,0.4644967937341201,-0.4729418770799908,-0.686752298327225,-0.2982280842862586,9.264111325547198,0.483682728409805,1.2403910001900127,0.365442890793082,-0.0874193516495141,0.3520879467604866,-0.5044551063851116,0.35174636697298794,-0.1326306554250806
26963,4.775,0.46432251454870627,-0.4728066682577471,-0.6876955634324422,-0.29653544302412005,8.751160397263295,0.40725189506360615,1.1122746338868552,0.2839166970160367,-0.17024985391227754,0.3296467300538058,-0.5019014548339825,0.34811756193635507,-0.12647527366481992
26964,4.783,0.46377671301937784,-0.47277639346510075,-0.6885718021040994,-0.2954022944903891,8.734991290928178,0.4056735795688671,1.1810977264464528,0.17782531066435806,-0.23184096613151425,0.22077201740865682,-0.4990627278857197,0.3487008913928142,-0.1338646894459235
26965,4.792,0.46297172164492334,-0.47287588218614934,-0.6892874258589581,-0.29483627584905236,8.925349103686752,0.44446457057245936,1.1947569208114506,0.06359710908235786,-0.2586843878873399,0.11560494254035951,-0.5081882396882368,0.3540754952927923,-0.1384141312209995
26966,4.800,0.4616686447221272,-0.4732599706339525,-0.6899394101576926,-0.29473831272374484,9.144788469176092,0.39747546185381827,1.2581648478241285,-0.07348036825685246,-0.3490475719127301,0.04572990076826129,-0.5133350131447296,0.347983147630434,-0.12746620358298733
26967,4.808,0.4598829507768676,-0.47391475814240464,-0.6905856297192283,-0.2949643395817265,9.050838223607073,0.320344018703699,1.10962888403921,-0.18645906217105007,-0.4448380920957942,0.004313627147858656,-0.4939614092542236,0.35196733329323027,-0.1307920845921703
26968,4.817,0.45744056666580557,-0.4749619563301762,-0.6913057127790418,-0.29539072342668354,9.172869821549403,0.2891628256517347,1.0711502843983705,-0.31145164578368634,-0.5888808886589505,0.00036213149773845263,-0.5031491520341029,0.35397139169752845,-0.121354300706954
26969,4.825,0.4543934133581747,-0.47633789658657266,-0.6920901617366461,-0.2960406090378988,9.313293467762284,0.24181530323448042,0.9364616491641463,-0.42520990106407713,-0.7199267979003503,-0.015102281188115779,-0.5133661253123478,0.3451586383705024,-0.11884441757842874
26970,4.833,0.45107960576262124,-0.47782403270103174,-0.692801261703865,-0.2970484721722949,9.704234145602681,0.17768751131277669,0.7964539712288875,-0.506848569155272,-0.7615514501819453,-0.07912144843524695,-0.5105703800239303,0.35281809485952087,-0.10949477975735875
26971,4.842,0.447761704116909,-0.479257719705198,-0.6932992882537572,-0.29859268466613437,10.132315106027525,0.006291653936992183,0.6891501995240845,-0.576229382647918,-0.7277437516524001,-0.19483231076015928,-0.5096712391564288,0.3505023286146273,-0.10608148791703195
26972,4.850,0.44447224196189167,-0.4805773406244382,-0.6935992627337153,-0.3006824047711466,10.356240788658612,0.04498746112393614,0.48559453404099306,-0.6323557174883866,-0.6887932113877588,-0.3193016716005955,-0.5145185216776159,0.34658993638923086,-0.10050890477173849
26973,4.858,0.4414753732581256,-0.48156095642557,-0.6937423949124087,-0.3031831617261829,10.571015326940264,0.0020055753756106774,0.3201929945103545,-0.6141742469537945,-0.600141787647047,-0.4394014903623246,-0.5112418425097243,0.3454246739783234,-0.09563165828430162
26974,4.867,0.4391295842214043,-0.48212347901211344,-0.6936216263747158,-0.3059594722705727,10.540128530160107,0.10505397523192465,0.39001311289732915,-0.5556019228044244,-0.4262543208749506,-0.535538841629692,-0.5105002400965634,0.3464393670043778,-0.09470202698133164
26975,4.875,0.437223836050232,-0.4827919521296834,-0.6929685144483524,-0.30909850554729795,10.90272739241412,0.15287060168019892,0.6243069655324436,-0.6419258637304398,-0.26544829551519544,-0.5852149480700082,-0.5141128719871864,0.35566094925720976,-0.09156270806390053
26976,4.883,0.4354476728934407,-0.483979467331601,-0.6918666255374022,-0.3122014923740688,10.984167442886799,0.43680816129362315,0.7337087560500575,-0.7697809343510095,-0.18987161923236587,-0.5075013264015684,-0.510626540548076,0.3553626034915249,-0.08844011349801661
26977,4.892,0.4337082892553192,-0.485606632102517,-0.6906203262412866,-0.31484422127721284,10.656631825975618,0.2928893877931567,0.35849675885810167,-0.8116792079060224,-0.1765880476118624,-0.35689318891561894,-0.5153546443130868,0.34846735655447586,-0.08425908327746916
26978,4.900,0.4319716522535833,-0.4874581830781912,-0.6894689752127873,-0.31688727273029976,10.345995385910022,-0.04059304264294401,-0.0714385191414852,-0.7769896073959716,-0.2006229796143122,-0.2073651150071419,-0.514303929535629,0.34650976393976696,-0.07783125052007941
26979,4.908,0.4304989236953065,-0.48915724738861127,-0.6884793643565918,-0.3184211501761823,10.010836640526584,-0.3944030503974116,-0.4969390426499431,-0.66198392031441,-0.1727502676609536,-0.11905119571214662,-0.5117809010627508,0.34666033332462004,-0.08693288825260592
26980,4.917,0.4295036703361167,-0.4904687819835904,-0.6876349551809631,-0.3195702418571114,9.781719370770967,-0.5366770667064106,-0.6295751246382989,-0.5072832481725329,-0.09460104286600272,-0.08115374808700268,-0.5139564840416715,0.3523037658364404,-0.08148322099885609
26981,4.925,0.4290959676571526,-0.4912913911648735,-0.6869152450001281,-0.3204011012685028,9.668835530822534,-0.49111460773939986,-0.5884707899406184,-0.33719240075746826,0.011724138864493172,-0.06682714684218859,-0.5192913461499621,0.3512876763083753,-0.07470777385513563
26982,4.933,0.4292973924728375,-0.49167560039788666,-0.6862588123539541,-0.32094811925908096,9.663604535150297,-0.49810660997544026,-0.5135208641827047,-0.18493154057165087,0.1294889332263751,-0.05219742208167005,-0.5119509835304373,0.34799590676014863,-0.08184334255843516
26983,4.942,0.43004833219576954,-0.4916712969708911,-0.6856660829214791,-0.321216111740546,9.662715540165701,-0.4105848607460096,-0.4594449827248266,-0.04565704500846006,0.23477810027691104,-0.0330503247001783,-0.5091792419985536,0.3514474182621071,-0.07525497198902525
26984,4.950,0.4311444417961843,-0.49135567047396783,-0.6852383802956661,-0.3211423945403453,9.58736737994254,-0.23793614227075993,-0.24213734178114651,0.08497770823855401,0.2832387281807382,0.0029830420551633847,-0.5064183253589032,0.35522260317756116,-0.07574348132844398
26985,4.958,0.432437919904761,-0.49086899108142795,-0.6849615846910577,-0.3207377535006754,9.481921038770126,-0.09519897489707144,-0.05444355215746418,0.17897162628416932,0.301614796106613,0.05201108475990892,-0.5103779400400287,0.35133833160399663,-0.08360477252366093
26986,4.967,0.4338544831945979,-0.4902673293607038,-0.6847437429165314,-0.3202096808501127,9.478075978728004,-0.01681436281401213,0.11946134005751777,0.22636548807354717,0.31889447248067726,0.06455366626473129,-0.5118977125626077,0.3499415338019575,-0.09042113519620776
26988,4.983,0.4369856266866379,-0.48890770552592294,-0.6839566812475842,-0.31971248915776557,9.420520089528802,0.09530041965932476,0.37253173002818213,0.20062379008106385,0.377191156292505,0.0027930667478274227,-0.505618089256445,0.3635948203661131,-0.09314999517440795
26989,4.992,0.4384060757903961,-0.4883281520442204,-0.683298837366894,-0.3200600373120545,9.359876137369774,0.022489393674000453,0.3607524121988919,0.0823125394995721,0.3889782483976558,-0.10793845705810919,-0.5073594695249238,0.3547926361099765,-0.08792372026006849
26990,5.000,0.4401242888476864,-0.48761028817925917,-0.682242552381849,-0.321048153627394,9.2101327103689,0.5519473574540392,0.924668685338884,0.014532032067325172,0.5121966448272263,-0.24611064585783943,-0.5076763714635502,0.3495313083741408,-0.0858392761731818
26991,5.008,0.441696878682604,-0.48725570207028773,-0.6807126005207457,-0.3226702707940721,9.30208584866495,0.3062120620659365,0.7569899912774921,-0.17677167393650595,0.5464360554317931,-0.33079439105222597,-0.5072594541038102,0.35780221497145037,-0.09423781919441411
26992,5.017,0.44294575032023886,-0.4869927419974839,-0.6791673086155688,-0.32460575845615824,9.100894730138977,0.43320812024562977,0.8060366720301101,-0.24737715790921327,0.48622905191673027,-0.39014081842969517,-0.4935628414063746,0.35330788979160554,-0.09743744923281461
26993,5.025,0.44393010328067084,-0.48684903433238597,-0.6776082056224987,-0.3267280227404654,9.126749925707786,0.44123535510930034,0.7804620902675219,-0.3057080196870443,0.43502728152936426,-0.41977569655374203,-0.5076003797253481,0.3551683613211039,-0.10468368140566181
26994,5.033,0.44465731437731143,-0.48682085883872817,-0.6760606738800709,-0.328979162566727,9.262326809162785,0.5103800027350571,0.8978865569842172,-0.35406216325909745,0.38158132274897255,-0.4374991234348086,-0.5038738391754363,0.3517126603131133,-0.098370572455571
26995,5.042,0.4457966626786093,-0.48616881367012826,-0.674632273831416,-0.33132539181935333,9.21383732131402,0.9515215914949254,0.6363693338860186,-0.21522195523051352,0.462826490661735,-0.5251645510325443,-0.5099773361291996,0.35175274653784533,-0.10668920296779093
26996,5.050,0.44779449245505093,-0.4845397998834378,-0.6731095583556965,-0.33410297410535156,8.624347456787445,1.167286494088086,1.2792910634936565,-0.04524942908525127,0.6742726181522174,-0.7122953216482334,-0.500159928803916,0.35285259507621025,-0.10456514950745462
26997,5.058,0.450242161228387,-0.482597232915683,-0.6712766245413271,-0.337297495364136,9.364675500562706,0.7020776413290543,1.0969485535627894,-0.04028341393418017,0.8167949744608308,-0.8240040052650206,-0.5127939904422966,0.3568810564697705,-0.11933668605340335
26998,5.067,0.4528465284009026,-0.4804601416336242,-0.6692640548642841,-0.3408426306717884,9.51792094455922,0.44312498526969196,0.8637668838931508,-0.052694192271209764,0.8806925703380992,-0.9148749127165564,-0.5075470491609767,0.35963735885313813,-0.10620596720523164
26999,5.075,0.45560474622929104,-0.47802818938196706,-0.6672963852638893,-0.34442546302979565,9.329287046638969,0.43311264845588165,0.7083897726445969,0.00950428261289708,0.9128229550784803,-0.9551289243764596,-0.5046988332610585,0.3545786522997875,-0.12334554341325198
27000,5.083,0.45838737107413846,-0.4755743974846394,-0.6654096248776071,-0.3477643478235014,9.355914412340711,0.46243663263982737,0.8126048077558834,0.0478011680088122,0.9051919525519867,-0.907119650778402,-0.5047492213146976,0.3504213626083488,-0.13050097074587375
27001,5.092,0.46134569441690704,-0.47307859167531624,-0.6636452334980764,-0.35061631507499075,9.211964336077664,0.40038833813893177,0.8614952609922422,0.12707311106868774,0.9198018166008385,-0.8081060767633331,-0.49882905857371546,0.3492188069767307,-0.12634538141816679
27002,5.100,0.4642718109402807,-0.4708665964443418,-0.6618022693735948,-0.3532054503700552,9.826958413587166,0.317929100831382,1.2259141970385068,0.09094835033420196,0.9134429255597188,-0.7203589776479331,-0.5018775306003683,0.35663755550573883,-0.1405385522978371
27003,5.108,0.4671798376950732,-0.4694986317973913,-0.6594921197075856,-0.35550552461977136,9.289859904141853,0.3077022566628522,1.4978324089255834,-0.0870160662752207,0.9437219220137576,-0.5601745133371523,-0.5004776379235885,0.35823557798825234,-0.14590008346193076
27004,5.117,0.4701810905071258,-0.46919380340143507,-0.6566560055601202,-0.35719715472138514,9.573625240173977,-0.07075651890192526,2.198602028008857,-0.2748634214533727,0.9948918997520935,-0.304874306500843,-0.498085161785029,0.35256542132661073,-0.1438637495193969
27005,5.125,0.4730613203028815,-0.47101195262599754,-0.6527935534192024,-0.3580800250377991,10.433792808869622,-0.7722681117166101,2.8913797288066063,-0.7045089301485428,1.0342672717414851,0.10994386858275956,-0.48840128915755215,0.36120367412298365,-0.14146208934475735
27006,5.133,0.47486302884989423,-0.47636337314521165,-0.6474978702633499,-0.3582311384590222,10.212398217068449,-1.2421053206457873,3.12743827968168,-1.4969814791976725,0.8949348537727412,0.6468885241893557,-0.48664253755591697,0.3637284411152196,-0.14068393164499327
27007,5.142,0.4749764615442475,-0.4864463398298523,-0.640788004906739,-0.35659227727572457,8.850478705160361,-1.4999747776576366,3.6860539149607385,-2.440942449306361,0.5817136310961059,1.5200189280624947,-0.47996152308425677,0.3739872510378953,-0.13284688307243495
27008,5.150,0.47364303624896775,-0.5022977292572309,-0.6322996959326964,-0.3515058462092899,7.5739127193105125,-2.6334796532984317,3.5953432213133674,-3.4553807486189707,0.3087000415839262,2.8615613577658845,-0.4689645480245226,0.3928258823944547,-0.13326545364415895
27009,5.158,0.47199398370707496,-0.5229811120377954,-0.6214008630260285,-0.3428897829136111,7.143574289376045,-3.21714940524416,1.9416150062254671,-4.312246339828414,0.35983622885003025,4.145801152520652,-0.45173159255533796,0.4159414591714526,-0.11370519926034742
27010,5.167,0.46976685587612294,-0.5467595983450602,-0.6084772429381784,-0.3318561247953153,3.69081036791631,-4.582785216571075,1.1928615289606515,-4.941263718377799,0.3778090300738435,4.994196899959484,-0.4288486583990171,0.442770996497394,-0.09866660315381426
27013,5.192,0.4485394187867911,-0.6027101023026801,-0.5822739990468072,-0.3106604455200878,-0.2710845442260052,-9.976404524077356,1.341093166792956,-4.256110082364003,-0.8751105483610206,3.3638535481141325,-0.3745501168204591,0.49057703494491806,-0.03265364004533252
27014,5.200,0.44463023581079636,-0.6110226029334545,-0.5794886578067523,-0.3052019455714382,1.4767401712262558,-10.218267724426633,1.0232780705973221,-1.6449976441651835,-0.7891573956153451,1.9139040626646968,-0.36742172077405627,0.4909218465001921,-0.029355596469353363
27015,5.208,0.4452871937314019,-0.6163210618296364,-0.5767448683542157,-0.29871896603845133,1.4462049056913007,-8.879300437061769,0.7724209627000337,-0.6387669760675713,0.08463877860847538,2.021028428883437,-0.3564660875933829,0.5004375850126771,-0.022258135162716925
27016,5.217,0.44956424561976915,-0.6198893504943951,-0.5730532845804847,-0.29195738599234555,1.0726639695770412,-8.102798422574875,0.6508370441942806,-0.10647396097393953,0.9176972247515256,2.080596516408363,-0.35608998981270695,0.4945971173264143,-0.030737720058810744
27017,5.225,0.45616560465545275,-0.6225805682260968,-0.5680825413241021,-0.2856371884740259,0.2525964458932462,-8.08576393066532,0.39840198996255205,0.06879082370898094,1.572888731311928,2.0457112379940483,-0.33761792061452534,0.5097126155651516,-0.04562247843527199
27018,5.233,0.4641035967805765,-0.6250501692849912,-0.5618695952411672,-0.2796832052084347,-0.9078997046851431,-8.471573946905764,0.10339215228753272,0.05607696321721202,2.0201056561306587,2.0340717850935457,-0.32581653672726407,0.5099202198104833,-0.04064494632694172
27019,5.242,0.4727000546122655,-0.6276780543401191,-0.5547340456577401,-0.2735782466819319,-1.8782520976342814,-8.576875453950375,-0.11107889669129581,-0.008866094421329409,2.266908552522892,2.14753130490663,-0.30796023219418533,0.5224096404657421,-0.04806866889826335
27020,5.250,0.4814974681739215,-0.6309618175644635,-0.5465929649855397,-0.26698970681689044,-2.687354780835315,-8.414376624543362,-0.1634619683490489,-0.1862316005162631,2.415560812005679,2.3431873337554574,-0.29390668505113665,0.518067281172761,-0.06467042984235725
27021,5.258,0.49001625094371687,-0.6354360002179994,-0.5372352356558728,-0.2597757975789785,-3.227079401579235,-8.225851623316442,-0.29033545199335903,-0.5223100032604768,2.498083900167316,2.623085205086925,-0.27766414432082437,0.5249850627535994,-0.06607178969338336
27022,5.267,0.49787156814993216,-0.6415792065365888,-0.5264252843047605,-0.2517467843140431,-3.865616792576125,-8.281899432749787,-0.34045494521967207,-0.9936490490222526,2.5312695542535932,2.9522341332855517,-0.2642734433469991,0.5500624216513382,-0.06770787822033002
27023,5.275,0.504862848818704,-0.6495160564322576,-0.5140512080311199,-0.24288629405772807,-4.558511425796985,-8.452180030312887,-0.43082255272275116,-1.5282977462030178,2.5522955313609934,3.3101196371453945,-0.23342137500665824,0.547879673210355,-0.06724006314396783
27025,5.292,0.5162831027611623,-0.6704356002085693,-0.4843653196817344,-0.22216683115599006,-5.271346386146635,-9.127736572108288,-0.3375658510435312,-2.303257196973223,2.6036248267900275,3.8640147616854255,-0.19159860999485648,0.574189898450369,-0.06398665774153561
27026,5.300,0.5204371131382939,-0.6833264878083283,-0.466811495357254,-0.21046888161944025,-5.933719987975038,-10.212488301532236,-0.3767100847698285,-3.143669596233497,2.678644893492737,4.358179552408811,-0.16143893309136675,0.5842369146216811,-0.0627226055031332
27027,5.308,0.5236257425197749,-0.6974274610006388,-0.44738968020218434,-0.19812494154296767,-6.333300062084065,-10.92263672797821,-0.3748191715828911,-3.6572554904756545,2.7828624937209505,4.631429839838788,-0.11608798556305766,0.5963105238410806,-0.05572079356282839
27028,5.317,0.5259372499301855,-0.71257082812326,-0.4258367133034043,-0.18519157012823081,-6.7525061668902895,-11.608717017939803,-0.15240647492144088,-4.159200019206337,2.9588971453653636,4.863781327535052,-0.08782184473454185,0.5994622930753437,-0.051703440412130375
27029,5.325,0.5275151564151322,-0.7284884796347819,-0.40183840735673415,-0.17192495212948725,-7.1844036903219415,-12.238720319866747,0.034119539866415104,-4.659020369803608,3.244127098590843,5.084407342308404,-0.048087383185179584,0.60638785072305,-0.047168863369803825
27030,5.333,0.5285028775487289,-0.7449309116417634,-0.3751130442917892,-0.1582809189556055,-7.835991798441853,-13.079714302423703,0.5196031308418759,-5.119049464127849,3.610411378101191,5.2907966102222765,-0.005830335940016192,0.6139404106127833,-0.027314304422104828
27031,5.342,0.5289607798470296,-0.7614832534891551,-0.34567407504447223,-0.14440630831560897,-8.39415176921746,-14.314745682545373,1.0396756518790016,-5.524103874533008,4.012126628581828,5.498276814532573,0.04122900170479263,0.6152676050362478,-0.013664376719358579
27032,5.350,0.5289251209676762,-0.7778559735167191,-0.3134371638218712,-0.13013625632001463,-8.801073017652552,-15.329616890499002,1.5966322512935205,-5.870334221531105,4.436465730187687,5.705634802067795,0.09035127008689113,0.6148158968816886,-0.014914049686815619
27033,5.358,0.52819570302512,-0.7936420728884064,-0.2788230390709918,-0.11575522593131114,-9.257280675353265,-16.11230555785612,2.151208247159269,-6.164677293533271,4.79939735433556,5.858821890736088,0.1444293538263374,0.6001578834171718,0.013213392182687762
27034,5.367,0.5266550586880163,-0.8086593130458087,-0.24185649286342573,-0.10104455177003448,-9.772549422229401,-17.086630020333477,2.721848211597195,-6.429137220554893,5.1406598129682175,6.011062395496056,0.19108959486376575,0.5841818480980692,0.020101022231695763
27035,5.375,0.5244763974515319,-0.8224482445575166,-0.20258621788597436,-0.08638412969509754,-10.446478687501376,-18.29076104535598,3.074182657350629,-6.625499058660943,5.547126410698953,6.150535952452981,0.2403897553968492,0.5607631331041585,0.03819980737645614
27037,5.392,0.5187118226455135,-0.8448489353843175,-0.1175843254474414,-0.05781217723650725,-11.613912084130735,-20.690277911779294,3.884453514400571,-6.736322647405689,6.213337954140881,6.275393179788574,0.33240801288609806,0.5230888540066796,0.06567133861904235
27038,5.400,0.5162704504339808,-0.8521955035010729,-0.07247839704007268,-0.04443565892106859,-12.594631435702052,-23.080878672723347,4.34105615018153,-6.405358024230597,6.960882687707924,6.396986577884134,0.388311079782111,0.47747432423543995,0.0854821548882522
27039,5.408,0.5143335500229772,-0.8565944705437588,-0.025535872525901348,-0.032478170652920454,-13.232580628915565,-24.305959603129754,4.952966131237495,-6.115182615642429,7.6062551152285405,6.428742470600674,0.4193385604661594,0.44470100918478667,0.09932356061759878
27040,5.417,0.5127573594194068,-0.8579231305175822,0.023615321921980067,-0.022138406778051005,-14.116649700927805,-25.53430882544813,5.404587343012797,-5.818295593885576,8.358749431298785,6.42349437567244,0.46200743334435446,0.39872830578336244,0.12270935585398499
27041,5.425,0.5113516235396838,-0.8559613649325928,0.07517294881997921,-0.01409562385178923,-15.196331562213794,-26.844517919761792,5.832540986195937,-5.553372776278364,9.239521356789806,6.408477382867266,0.4934727603391998,0.3546027118365258,0.141219102873116
27042,5.433,0.5096142077465806,-0.8505564665931348,0.12953567955441547,-0.008219739764925895,-16.325603033361677,-28.34306949742698,6.273428955704806,-5.349116737100583,10.194340523432858,6.399507060779373,0.5069955611687308,0.3088818884111971,0.1626396132686302
27043,5.442,0.50683696672404,-0.8415411477637446,0.18681472919918857,-0.005004271843916037,-17.399968957952762,-30.145071942005387,6.60031187521697,-5.275342227950956,11.244509506739892,6.36929870607348,0.5264133175194682,0.2529219967029607,0.18925111177850107
27044,5.450,0.5020681349214596,-0.8287497440079893,0.24715188120852707,-0.00417100926226287,-18.679353886651963,-32.450918885646296,6.825793639713945,-5.321476825016602,12.324939612070706,6.2986186871658125,0.5495505523213233,0.20197015625245354,0.23410158663523448
27045,5.458,0.4948480992173516,-0.8118627485268116,0.309782570767599,-0.006244605999002917,-20.342970050218536,-35.178726055456615,7.1061775675167285,-5.354218367718425,13.386861936205912,6.158217721909637,0.5458910174793508,0.14966300072664998,0.2680829509835453
27046,5.467,0.4848644962132675,-0.7904625695631976,0.3740940869915197,-0.011356078081049997,-22.25608188897636,-37.941261237425095,7.776718894010769,-5.252410713146677,14.440875193659156,5.933759358539299,0.5329621933239513,0.08529778811518296,0.31242564374845594
27047,5.475,0.47268607466615326,-0.7641758925172841,0.4383917190549464,-0.02039070317976252,-23.61641773914955,-39.582520656587796,9.21855406141342,-4.828856401553321,15.365254324775846,5.656310713285817,0.502056259200173,0.04629771109625018,0.35906771612967664
27049,5.492,0.4440934258731199,-0.6965180783136716,0.5614475911319627,-0.04919550884605748,-22.288215615808067,-37.79745769742616,13.032318588912183,-3.732013206405542,16.299591028569616,5.335963281234312,0.431671665435927,-0.036934253523608254,0.44021634807025495
