packet_counter,timestamp_s,q_w,q_x,q_y,q_z,acc_x,acc_y,acc_z,gyr_x,gyr_y,gyr_z,mag_x,mag_y,mag_z
6102,0.000,-0.9999980164091357,-0.00022547360860370862,0.00024403400349675835,-0.0019638703753737984,0.008522988428585615,-0.16031605632736112,9.760739702448001,0.002176975862458978,0.0002826895304724243,0.002294696675800221,-0.3602119564288906,0.8206744049052901,0.4915922914342718
6103,0.008,-0.9999980174515435,-0.0002476613085729829,0.00024431139473443566,-0.00196062969519273,0.027235977678968883,-0.14554605366023446,9.77802481933867,0.006794397452672399,0.0010168530177745605,0.0005931498878959738,-0.3560661797125237,0.8362615097660601,0.48955717659439796
6104,0.017,-0.999997969121897,-0.00023635885856264602,0.0002359073345536053,-0.001987519635419427,-0.0003707317883679154,-0.17583905480628786,9.783620068163653,-0.001081708392282198,0.00271278716537424,0.005247324714034248,-0.35949254159069643,0.8259304507046026,0.4858675755630197
6105,0.025,-0.9999979765759951,-0.00023229581494484637,0.0002385122987949426,-0.0019839340850261985,-0.008606803921090225,-0.2083328802471744,9.720133859495066,0.00031436775909303156,0.0005835572142177587,-0.0018885105392827855,-0.35827816817147834,0.8307577638233128,0.48308073482483815
6106,0.033,-0.9999979413679865,-0.00024494323777341686,0.0002367881301439569,-0.0020002984731155565,0.020173672326288982,-0.19544004685582095,9.777566966251205,0.004668128211292341,0.0011489891196559486,0.0027010831375035675,-0.3658328693841084,0.823798039524276,0.48909975239792775
6107,0.042,-0.9999979402796055,-0.00024237216982076764,0.0002345544234256191,-0.002001418621906796,0.007992057703836257,-0.15933050739566312,9.760756289018083,0.0006794115652512848,0.00158206355842054,0.000625519915736473,-0.35876650444837,0.8319782156108791,0.4830570744490205
6109,0.058,-0.9999979119881605,-0.00024194003393280682,0.00023089645274102956,-0.0020159789600380095,-0.0075902901894478415,-0.14843081726740903,9.743711384052075,0.0015853169953970745,0.0012241569202993071,0.0005159266393110169,-0.36364517396449114,0.8266429057656677,0.4848857860674825
6110,0.067,-0.9999978859159593,-0.0002466965123266975,0.00023478695487762333,-0.0020278509632531924,0.02648132137592754,-0.1445510389645781,9.778041651226307,0.002176793690162469,0.0002827611878258108,0.0022948824182553937,-0.35876227275386813,0.824446092548048,0.4849192762324673
6111,0.075,-0.9999978589885695,-0.0002461458638563694,0.00024337489529502063,-0.00204014684549415,0.01643824638913861,-0.1426901529474748,9.737893591914563,0.001497372590860941,-0.0012993073054387535,0.001669383931512364,-0.34923923900359954,0.8264136774167604,0.4855902767895704
6112,0.083,-0.9999978402926365,-0.00023870248868658738,0.00023217586403473915,-0.0020514691206456963,0.007645451647430382,-0.15876493511784345,9.760765782790306,-0.0004529695564161637,0.0038799959931303417,0.00147017514129877,-0.3511884424768186,0.8257160843643014,0.48731820514912394
6113,0.092,-0.9999978321702907,-0.0002517263897750368,0.0002511073197373162,-0.0020516416984639723,0.0491421345156055,-0.19813948789047245,9.748662096268198,0.004755974475457855,-0.003729667708886145,-0.0012829044670019582,-0.3558186134164675,0.8221290390446324,0.49106440186807954
6114,0.100,-0.9999978361349351,-0.00025238540131560313,0.00024090938103197115,-0.002050850976277703,0.00962361944545705,-0.19250943436737822,9.737441890753923,0.0016732542120091146,0.0037475761945021547,-0.0006375838602318723,-0.35266513321425896,0.830005676739298,0.4821064777783364
6115,0.108,-0.9999978055239015,-0.00024710363733613757,0.00023986420076208182,-0.0020664830846193398,0.009429546422665528,-0.19242681341740078,9.737443713254304,0.000364932953026758,0.000998683666066251,0.002514045831110085,-0.36290446765724405,0.827449486881238,0.4885306056447496
6116,0.117,-0.9999977909108823,-0.000259814590320527,0.00024393727043737847,-0.0020715125735008217,0.009380762277353587,-0.1922375302587824,9.737447499546438,0.004302959231597446,0.00015032651337873655,0.0001873368884607799,-0.35631757854160645,0.8252080876378001,0.48636340475311907
6117,0.125,-0.9999977767373243,-0.00025582260071934103,0.00024061706925383798,-0.0020792254883867734,0.0006226158469826072,-0.2081500883350613,9.76032417217754,0.0006793946171833294,0.0015820923943941493,0.0006254781771501354,-0.3516790087034595,0.8271608104979064,0.48631323187406633
6118,0.133,-0.9999977448766981,-0.0002517070914723315,0.0002413928780408408,-0.002094902035118279,0.012578446195460875,-0.24399791655783068,9.777146872121643,0.0003648974067711228,0.0009987362615608785,0.002514051718187578,-0.36097482408878934,0.8311468644809654,0.4781951349590155
6119,0.142,-0.9999977691052719,-0.00023991897410034166,0.00023718678957459645,-0.0020851776404114297,0.0017901864650252178,-0.22596350343917823,9.823347807466313,-0.0011827635618070493,0.0018826083674409971,-0.003558085928617159,-0.3604791982595148,0.8282821822280989,0.4814266397201549
6120,0.150,-0.9999977356818514,-0.00023715880326687734,0.00023697309551489278,-0.002101482958508057,-0.020469100765103245,-0.188398538504072,9.766374116665755,0.0003648629519233977,0.0009987292755957384,0.0025140594186449333,-0.35803186577219753,0.8319980316223539,0.48403176899632533
6121,0.158,-0.9999976850338944,-0.00025324903136458675,0.00024715750022291915,-0.002122429021230369,0.0070116805007336275,-0.1576395304938035,9.760784499639865,0.005485631570447685,-0.0017323219835505025,0.003745590421669895,-0.35535035794483977,0.8231711467289259,0.4822512921606596
6122,0.167,-0.9999976691160237,-0.0002434627186753242,0.00024225587176385734,-0.0021316192242240677,-0.020470776607081756,-0.18798238917635687,9.766382132177782,-0.0011323504851744029,0.0022980234362907966,0.0008444829922489734,-0.3538714004304816,0.8298903904563709,0.488460538614397
6123,0.175,-0.999997682725806,-0.0002599800059705572,0.0002337066032739216,-0.002124225656157434,0.046293741596319424,-0.16265019605610612,9.772020007693385,0.005611370064199782,0.002898938961357373,-0.002964125500602621,-0.356552956342527,0.8277282552588322,0.490219855276275
6124,0.183,-0.9999976403718647,-0.0002514806106483024,0.00024350584721544578,-0.002143994661265997,0.015394062193415721,-0.1409653175201675,9.737920419885905,-0.0006291160562021984,-0.0011665551676650811,0.003777163669712581,-0.3506971721747585,0.8330685191069124,0.48863301423596034
6125,0.192,-0.9999976248537435,-0.000255043352208278,0.00024317124422751436,-0.002150838791265261,-0.012053165209000558,-0.17140921420706837,9.743516934733947,0.002491125593698328,0.0008661529713838997,0.00040652889096803315,-0.3533803583334184,0.8301592508282277,0.48967492368620025
6126,0.200,-0.9999975830358606,-0.0002584439097033678,0.0002472782323068915,-0.0021693276974112325,0.025433113359550244,-0.14240526160883174,9.77807591986148,0.0021765405040619847,0.00028289704696974976,0.0022951378753171556,-0.3568037749289033,0.8281569879394344,0.4872814253559187
6127,0.208,-0.9999975453300837,-0.0002635383087017345,0.00024256977265776656,-0.0021865592313595385,0.006574924524713458,-0.1566078954822127,9.760801409693508,0.0028559096970996473,0.0018650031431555337,0.0029206276350004943,-0.3521671055178348,0.8352207462987137,0.4863949495033597
6132,0.250,-0.9999974742875916,-0.0002517358908314486,0.000253698177443821,-0.0022189377444426506,0.017930696270356573,-0.18505297182426902,9.752424418964852,0.0009964389794126828,0.0003464443153894591,0.0001626332183557437,-0.3604820166548796,0.8292337736438086,0.4801863751233909
6133,0.258,-0.9999974566332663,-0.00025938660597238616,0.00025695021175277426,-0.0022256284901063057,-0.000389392668681435,-0.20628151747540097,9.760363854848116,0.002491080433098927,0.0008661121368015159,0.00040660269064232273,-0.35070155327162195,0.8318084352963964,0.4867050663680253
6134,0.267,-0.9999974413143687,-0.000255396833235356,0.00025363248038307674,-0.0022333400409144514,0.03902715669679997,-0.2115238518005388,9.771599107828708,0.0006793797238874588,0.0015821217018972408,0.0006254402288693676,-0.35362421689008267,0.8240569918903953,0.48979932822543204
6135,0.275,-0.9999974493205296,-0.00024795912514108593,0.0002634473226381698,-0.0022294537931780776,-0.021261785951003514,-0.18636069326748836,9.766411521564011,-0.00036473588728928456,-0.0009989781397383723,-0.0025140634779311772,-0.35825545214576926,0.8194836771349359,0.4930771614501179
6137,0.292,-0.9999973633826562,-0.0002436632384789953,0.00026661997027125093,-0.0022677675705509164,-0.024607723337164565,-0.21143262087394493,9.766189669508845,0.0011132572647357796,0.0003494068356555556,0.003348978989705006,-0.35632731193660616,0.8317143092418912,0.4820801216570783
6138,0.300,-0.9999973481778993,-0.0002542946116305385,0.0002554961919182839,-0.002274575370440295,0.006008730000334944,-0.15552103275420012,9.76081915293514,0.003849848024112961,0.004030301001009163,0.0016575346646578077,-0.35386789227182724,0.8260146687533703,0.49000434081938565
6139,0.308,-0.9999973317581139,-0.00025785873633470417,0.0002551635069775186,-0.0022814199766913574,-0.012959115481410464,-0.16967123108566862,9.743546191691266,0.0024910465495668085,0.0008660596680188624,0.00040669044135818467,-0.35753495047649864,0.8252378116550123,0.4878307170532912
6140,0.317,-0.9999973106786537,-0.00025795580164702435,0.00026557980815930635,-0.0022894457037340703,0.026573226240071503,-0.17488205246158367,9.754783542492392,0.0014969470860461916,-0.0012991369130052543,0.001669923048068356,-0.3614557694956239,0.8285262725856122,0.48142390487922027
6141,0.325,-0.9999972941479474,-0.00026151986516581853,0.00026524747554442966,-0.0022962900340603412,-0.012926884069370911,-0.1693471973373487,9.743551871744499,0.0024910382060268103,0.0008660461879551301,0.0004066906901379313,-0.3551032532070761,0.8190463806655432,0.4835554038411497
6142,0.333,-0.9999972667532819,-0.0002653078734224744,0.0002683772785953087,-0.0023073949237885014,0.02654064723271615,-0.17453078614657971,9.754789922329236,0.0021763093518184728,0.00028301201605067535,0.0022953750834353113,-0.3575314535753636,0.821606180309525,0.489369565268202
6143,0.342,-0.9999972368931426,-0.0002572078442169901,0.0002739848530281573,-0.002320556507583233,0.04531783682983904,-0.16004737163613295,9.772067556985583,-0.0003147316965766093,-0.0005830144294206442,0.001888683580609473,-0.35485903135518304,0.8293031296839704,0.4835908711978852
6144,0.350,-0.9999972445231602,-0.0002706268414163259,0.0002759944258313055,-0.0023154987101449472,0.057365319977558844,-0.19575927988183534,9.78890614399926,0.0046173800552967055,0.0007329039192330579,-0.0017006721316741857,-0.3568067284145002,0.8320376636453035,0.48598171287822056
6145,0.358,-0.9999972519040567,-0.00026510753015709937,0.00027705418501623334,-0.002312821504343977,0.04724097626241777,-0.19386183679777044,9.74875749681178,0.0003147252224946762,0.0005829809677405507,-0.00188868446927195,-0.35776634424834264,0.8255958440785056,0.49344038157818143
6146,0.367,-0.9999972299359952,-0.00025782184355058055,0.00028440604590662693,-0.002322231994071854,0.047240976320934915,-0.19386183683251787,9.748757496810807,-0.0003147252224972279,-0.0005829809677405507,0.0018886844692731998,-0.35996714307677175,0.8421692183750661,0.4918880547020078
6147,0.375,-0.9999972364741776,-0.00025985630623655666,0.00028845007654087514,-0.0023186882630649584,0.00043981367805108305,-0.22231940118391907,9.823431108654525,0.0021263403433476116,-0.00013312800553623802,-0.002107351697298666,-0.3531477538977855,0.8276143131928521,0.4845980245265917
6148,0.383,-0.999997207562075,-0.00027535270800943567,0.00028615822853226777,-0.002329627096122633,-0.013058104980114955,-0.16834498178761412,9.743569064744477,0.004981974494123054,0.0017321219695915799,0.0008134451590422011,-0.3526498080586069,0.8225726337338407,0.48885047410759375
6149,0.392,-0.9999971916064221,-0.0002713636752130069,0.0002828429229225227,-0.0023373362842045867,-0.0011397945210581673,-0.20400057320905382,9.760411736187987,0.0006793679717253709,0.0015821665748226169,0.0006253551854936918,-0.3499733342642337,0.8266429057656677,0.48485471797947827
6150,0.400,-0.9999971583479784,-0.0002716315510595333,0.0002935160805798344,-0.002350183094848413,-0.003133937132525324,-0.16971929402792219,9.783727647763273,0.001496856597420861,-0.0012990304044699274,0.0016700963083003543,-0.35924989369782123,0.8342196148543172,0.48521040565850637
6151,0.408,-0.9999971658083369,-0.00026611295029897334,0.0002945773068124879,-0.002347505783153195,-0.019891527852059332,-0.21824870869727506,9.743140072333471,0.00031473907764455075,0.0005829068583485931,-0.0018887006395716325,-0.35973456421078776,0.828147079933697,0.4867999033487671
6152,0.417,-0.9999971336103172,-0.0002624353005797995,0.00029483791537495416,-0.002361560811571852,-0.0011888262170377958,-0.20381075281149513,9.760415695843784,0.00036462396520499656,0.0009992654816353224,0.0025140480384822942,-0.3548490810127058,0.8301245728081469,0.48796962431888125
6154,0.433,-0.9999971693768134,-0.00027253029926311363,0.0003102881083062849,-0.002343221476224223,-0.03127730165803948,-0.1909872510403056,9.757821649729843,0.002849803313196183,-0.000990922939323107,-0.0034735744027455367,-0.3619255426386728,0.82429612824504,0.4895691472757805
6155,0.442,-0.9999971704359599,-0.00025953195374412737,0.0003131122489400141,-0.002343869441446229,-0.003069999977181082,-0.16921217927153953,9.783736451856756,-0.0018115940165829734,0.000716080032637979,0.0002185650333855913,-0.35826186875994315,0.8262637131137524,0.49025346272774256
6156,0.450,-0.999997162353908,-0.0002574571837678186,0.00032608127761311027,-0.0023457772551609066,-0.0030050598322080456,-0.1692398809214095,9.78373599295245,0.0011322523187867234,-0.0022982749257800346,-0.0008438770077230684,-0.35141228777333494,0.8188158080996891,0.49624965583112624
6157,0.458,-0.9999972119303926,-0.00025010814085967876,0.00033368869943884534,-0.00232426960815711,-0.02165764264590433,-0.1836082266856017,9.766462785734786,-4.998459058692443e-05,-0.00041645357137157723,-0.004402667850112793,-0.3560686828973473,0.8303785711713975,0.4884556237198134
6158,0.467,-0.9999971813633848,-0.00024200866767607037,0.000339297865831036,-0.0023374289398291124,0.005844602237351565,-0.1531083317025981,9.760857395492417,-0.00031466427863048856,-0.0005828795372032464,0.0018886847497804821,-0.36533189945960665,0.8253765237353358,0.4946829826105714
6159,0.475,-0.999997169195469,-0.00024198006383050337,0.00034942689438338865,-0.002341142358474758,-0.0027739788925245606,-0.1691624833058746,9.783737399645277,0.0014969241324253645,-0.0012989339189170446,0.0016701116920991726,-0.3602213633558297,0.8201020061414956,0.4874526740504885
6160,0.483,-0.9999971565369901,-0.00024272465794696792,0.000355746510977581,-0.0023455163814139783,0.03880537011442836,-0.20859117970858856,9.771663033813635,0.0018115825056103443,-0.0007160683722519888,-0.00021857869681972554,-0.35924843536860696,0.8266627217771424,0.4858521588055004
6161,0.492,-0.9999971424452696,-0.00023551243607616113,0.0003626717400507653,-0.0023511921224047536,0.054260981910286166,-0.14213289476390734,9.749216177588865,-0.0003146629028108733,-0.0005828507261830099,0.0018887080809624685,-0.35288566172994956,0.823379214849411,0.492497512834004
6162,0.500,-0.9999971188900383,-0.00022960907735215948,0.0003430740748792283,-0.002364696909480557,0.04398633246659444,-0.14044809868389352,9.709064103340575,0.00022649355701176682,0.005462696644120728,0.0020943965774632,-0.35460255346303826,0.8264830334569223,0.48901973829192524
6163,0.508,-0.9999970931583982,-0.00023696013911355903,0.0003567432904262031,-0.00237281665358446,0.06597274168765696,-0.17787826568231574,9.766062418362004,0.003308429514212907,-0.0020150421452823355,0.0014516283491990078,-0.35410371217061193,0.8260889787964008,0.4936662415160295
6164,0.517,-0.9999970962790297,-0.00023426159958923027,0.0003511567625313826,-0.002372602777592329,0.07802095630462562,-0.21358663579258794,9.782908620719846,0.0009940651037211273,0.0021650225612013596,-0.0012634495644648586,-0.35925512521785513,0.827335544815258,0.48290822010778056
6166,0.533,-0.9999971324103725,-0.00022824898356413345,0.00034604287741523613,-0.002358670761430654,0.03858867696469737,-0.21631240966310067,9.728503646203476,0.0008117292698028093,0.001665324638777524,-0.002520418138525115,-0.3560728275863048,0.8239925898531022,0.486631709643513
6167,0.542,-0.9999971471377019,-0.0002161071052087186,0.0003457619573138889,-0.0023536063489462615,0.01933798404687132,-0.22251607972684573,9.754402209035396,-0.0014968772946503499,0.0012988739401217802,-0.0016702002244393833,-0.3587618644285619,0.8276242211985895,0.48509896408874587
6168,0.550,-0.9999971501377238,-0.00021340863202254118,0.0003401757889458725,-0.0023533919391352898,0.050629001536284475,-0.2604122336093755,9.702176869464745,0.0009939876979057837,0.002165052974346694,-0.0012633839016975492,-0.36069389555203657,0.8275683829500867,0.49438376601415024
6169,0.558,-0.99999718632537,-0.00020525080373365404,0.0003308559161504894,-0.0023400315838916917,0.0002101245354037068,-0.23693019689869774,9.73712820652777,-0.0005029145764094176,0.003463914763193518,-0.002933564653934093,-0.35340731216285004,0.8250346975373957,0.4778136068505209
6170,0.567,-0.9999971779127492,-0.00020317668387317292,0.00034382681996309974,-0.0023419369954030727,-0.03126525781300089,-0.19902950681554168,9.789352913455907,0.0011323789906254318,-0.0022982661730881304,-0.0008437548410991656,-0.3550918077082163,0.8235440411610253,0.48859211629284977
6171,0.575,-0.9999971621722618,-0.000197822108917683,0.000348751765476726,-0.0023483794504232164,0.019025347624394534,-0.22244401929080193,9.754404467281642,-2.600458910706482e-15,1.186e-321,-5.828670879282072e-15,-0.35606859283719267,0.8284258483112912,0.48849525564043617
6172,0.583,-0.9999971696065286,-0.0001847508377581705,0.0003468330081970688,-0.002346561937116207,-0.04800025045759718,-0.2476547642236671,9.748768257663595,-0.0014969085143185866,0.0012988333637928159,-0.0016701984633027299,-0.349980998369365,0.8243767365078862,0.48148204770811137
6173,0.592,-0.9999971615493678,-0.00018621036810234347,0.0003363929773915923,-0.0023513950478150102,-0.04883342877129441,-0.07697771893870255,9.756093300308198,0.0016731352039150284,0.0037473336957477145,-0.0006380142649803988,-0.35778558894256557,0.8217610986154017,0.4849715509741803
6174,0.600,-0.9999971260091267,-0.00018093092955005207,0.00033535295836821717,-0.0023670183519596214,-0.028275518072650413,-0.09667515188024114,9.750058960300882,0.00036446267356053024,0.0009994385103466847,0.0025139652927811664,-0.3619494948978201,0.8262799193393057,0.479028703091587
6175,0.608,-0.9999970350114021,-0.00018381215129713898,0.0003384963322551875,-0.0024044961490656304,-0.008188399680047545,-0.09995381979613277,9.830369052970193,0.0019109740044652617,0.00011723868003704613,0.008586893857404423,-0.35801772571068535,0.8382290946347725,0.4902542521539332
6176,0.617,-0.9999970221922134,-0.0001845586728592519,0.00034481764712521857,-0.0024088681144661755,0.04264164189692213,-0.13967686488131767,9.70908122728542,0.001811588189387877,-0.0007160845359890043,-0.00021839961675602877,-0.35681074927074496,0.822966688394362,0.4842122926927764
6178,0.633,-0.9999969485296543,-0.00017539136191345404,0.00034430056525634625,-0.002440005403833804,0.029541682185020224,-0.1637239563975937,9.743402560255852,0.00036445129396049636,0.0009994689839050673,0.0025140095170531687,-0.357049669002878,0.8300948487909345,0.4865100790407102
6179,0.642,-0.9999969736874664,-0.0001801678486498592,0.00034762573674538503,-0.00242884989298489,0.021124025261416064,-0.10325108069431689,9.801460298387699,0.0024412138762637614,0.00044939306224502535,-0.003995754449408262,-0.3560649608458256,0.8218651326756443,0.49009355173628094
6180,0.650,-0.9999969963671709,-0.00017876180994828047,0.0003397688483230682,-0.002420714353537636,0.0008617924217188879,-0.09972870326240973,9.72115216680751,0.0013088436239768026,0.0027477351213861367,-0.003152043943858808,-0.3604653539481155,0.828894213014843,0.48751897492226254
6181,0.658,-0.9999970161575441,-0.00017397545360129218,0.0003424315601953898,-0.0024124985339804774,-0.02871862393551065,-0.09597964270608356,9.750064536589308,0.0003148070854547259,0.0005827395811831382,-0.0018886676820353472,-0.357265917739379,0.8269252839291834,0.49878447605361237
6182,0.667,-0.9999970029814511,-0.00018227654703378336,0.00035173647218928047,-0.0024160059665818217,-0.07888156073319166,-0.07235436447590234,9.785009374521888,0.003623175199268382,-0.0014321144380550922,-0.00043664225200134015,-0.35899582893034543,0.8235638571725,0.4895773517985846
6183,0.675,-0.999997010651509,-0.00018296553867135076,0.00035998835518494287,-0.0024115596699879264,-0.05605595565916731,-0.12611339596767676,9.755675005451128,0.0018115784242147812,-0.0007160564862264911,-0.00021831052836020063,-0.3526465445107674,0.8360322814171528,0.4902866327443463
6184,0.683,-0.9999969734184848,-0.0001927939005105487,0.0003649152426996207,-0.002425452792365186,0.006241699042425808,-0.1852247162312142,9.73758593890116,0.003987547149967803,-0.0004325294824292224,0.002077355463940655,-0.3546102625982468,0.825193225629194,0.48562725206024693
6185,0.692,-0.9999969158761961,-0.00018942008097294196,0.00038434377469148397,-0.0024463519763371047,0.028517773027811614,-0.22260330566817624,9.794595113367835,0.0005027580295667661,-0.0034636854330919297,0.002933866455531991,-0.35020969757855674,0.8264681714483161,0.4882774829389094
6186,0.700,-0.9999969220678313,-0.0001990120525766287,0.00039137730410366075,-0.0024419403908926738,0.048070404342084976,-0.22442891475869559,9.725531072155498,0.0039378458578397686,-0.0008495375076477164,-0.0023253018543982406,-0.3511900614659138,0.8247248609256421,0.4866057519275637
6187,0.708,-0.9999968732178113,-0.00020500957863726834,0.00038878883477170396,-0.0024617816547289066,0.06877861775046508,-0.24393718464322015,9.719507504978946,0.0028552092724536396,0.0018658801430749407,0.002920856457148826,-0.3521547225902602,0.8314242886416126,0.4918441873449969
6188,0.717,-0.9999968677677621,-0.00020012002193562213,0.00040841382750201124,-0.0024612201825970495,0.05817798867151831,-0.22569835612602662,9.765695152059303,0.00045304967619911945,-0.003880693440676771,-0.001468646767586524,-0.35289044809750897,0.8309063839093737,0.4903912213232668
6189,0.725,-0.9999968481407894,-0.00019414801389423152,0.0004139324243179572,-0.0024687395536409445,0.07572857278700358,-0.19348867991816937,9.719928739035945,-7.163865854697971e-16,1.186e-321,-6.2450045135165055e-15,-0.34849210482465925,0.820196132196001,0.4920637490792906
6190,0.733,-0.9999968312268211,-0.0001901599090733749,0.0004106223869910026,-0.0024764419599412916,0.006703287585180432,-0.1844067541152702,9.737601156322224,0.0006792378026091401,0.0015822989060352726,0.0006251801249247325,-0.36533134478654916,0.8253814777382045,0.49492707233786193
6191,0.742,-0.9999968152191651,-0.00019228636800806297,0.0004145202927408841,-0.002482085898402072,0.025390645311304652,-0.16987380070627237,9.754875193307623,0.002175977081483051,0.00028360631440122423,0.0022956584422812914,-0.3582667482422674,0.8237782235128012,0.48810619508290615
6192,0.750,-0.9999968015724123,-0.00019303352339850304,0.00042084439535378413,-0.00248645792229448,0.006641291794127677,-0.18412926109939462,9.737606449920063,0.0018115015907921638,-0.0007161189393091966,-0.00021824465272442012,-0.3492307162723889,0.8220943610245516,0.48934079452032947
6193,0.758,-0.9999967251926462,-0.00018854854794692747,0.0004196164496602535,-0.002517533607337003,-0.031534822173072276,-0.19644244907939662,9.789404304761023,0.00041413141106365234,0.0014169352390122215,0.00691660265056352,-0.36118624963056273,0.8316832410077318,0.4925920296663649
6194,0.767,-0.9999967234991272,-0.00020377719652042427,0.0004133499424365815,-0.0025180563317413846,0.018502753641441255,-0.21968640181478177,9.754467969510946,0.005296307776249066,0.002314776850903004,-0.0010748475228845324,-0.35898618254089004,0.8309757399495353,0.4938223471874789
6195,0.775,-0.9999966709720851,-0.000195946077340295,0.00039994589954532074,-0.0025415926423656018,-0.0025186705190629634,-0.1997018878486839,9.760500377255223,-0.00040341533733705983,0.004298072491642941,0.005871243870459064,-0.350201208619904,0.8228811261286472,0.49201313869943497
6196,0.783,-0.9999966529935526,-0.00019951158457749262,0.000399619916508732,-0.0025484310354605367,-0.04224750968968705,-0.19424685992321805,9.74925697363309,0.002490726493195999,0.0008660764244417754,0.0004070372803640395,-0.35436622392127337,0.8273900388468136,0.48558211136226054
6197,0.792,-0.9999966348624558,-0.00018869187588723207,0.0003953519944674617,-0.0025570209113408298,-0.021629216415877173,-0.2139782068149597,9.743231093855993,-0.0011322096059068983,0.002298510568984989,0.0008433331369642113,-0.3594724239582642,0.8349010016812229,0.4947205518299673
6198,0.800,-0.9999965995809386,-0.00019570189977380416,0.00040693172271627926,-0.002568449707488818,-0.002877095690048527,-0.1994731516883826,9.76050495535685,0.003308005004779717,-0.0020149309961457655,0.0014525217980056546,-0.3548572097307399,0.8259007266873902,0.4843924962408465
6199,0.808,-0.9999965798876876,-0.00020317958333972044,0.00040160520899017025,-0.002576362598894268,-0.014944050334149781,-0.16333121755485,9.743651689624514,0.00316997206627315,0.0024483517657682653,0.0010322445654499825,-0.3616802370103137,0.8230855844632109,0.490081541893465
6200,0.817,-0.9999965832192228,-0.00020048298743089235,0.00039602580196475946,-0.0025761444089983467,-0.023831818458200132,-0.17925285515123496,9.766538631512065,0.0009941823568557486,0.002164732392179206,-0.0012636118196882832,-0.3609324550435509,0.8268856519062338,0.496840080044575
6201,0.825,-0.999996577165375,-0.00019251042811092444,0.0004031857210838427,-0.0025779911837873933,0.015616303976567979,-0.18459558388727149,9.77778605602234,-0.0003149416362081141,-0.000582426734221465,0.0018887905568710725,-0.3585140218428211,0.8315643449388832,0.4867277735512484
6203,0.842,-0.9999965453693975,-0.00018926993206092396,0.0004062041531081051,-0.0025900626149444566,0.019271757854993948,-0.1675801786971683,9.734825125361683,0.0012453448597889202,0.0004330245607609248,0.00020355541738476194,-0.35753340208712964,0.8157281957177311,0.48851210212090795
6204,0.850,-0.9999965439028141,-0.0001914129169576653,0.00041486424554308427,-0.0025890985266269722,0.003550366995249117,-0.14845402942387556,9.760930396927568,0.0018114338277622408,-0.0007162556440300748,-0.00021805346680357318,-0.35608838094695394,0.8243420584878053,0.4797872892992224
6205,0.858,-0.9999965213989184,-0.0001977960041743213,0.00040788810929572955,-0.0025984022194672257,0.02422680354147286,-0.16803955918376778,9.754909922946894,0.0031699124782798185,0.0024483672858068516,0.0010322864760120884,-0.3580363256716963,0.832446580314431,0.4820691431978454
6206,0.867,-0.9999965199945523,-0.00019449495698663365,0.0004101021480615054,-0.002598843343622029,-0.005344808114959709,-0.1641987841637626,9.783820896578536,0.00031496256579390956,0.0005823665258764879,-0.0018888024111165752,-0.3543530018280476,0.8294616577757686,0.4914006328966106
6207,0.875,-0.999996502074123,-0.00019050720434398314,0.0004067949198191235,-0.0026065426175167386,0.022034342310146546,-0.13365109032092745,9.778207743199713,0.0006792209020802574,0.0015823233584553614,0.0006251612146422256,-0.35265776485924066,0.826652813771405,0.485349000094203
6208,0.883,-0.9999964319789783,-0.00019534470398729534,0.00040625210024007504,-0.0026330265836370334,0.0031495116864565203,-0.14793840106541695,9.76093836319858,0.002539893596346021,0.0012836710341917995,0.004809959286828432,-0.35851302812650965,0.8220497749987333,0.48716506889157474
6209,0.892,-0.9999963965126699,-0.0001872480753576275,0.0004118679756065643,-0.002646179246448612,0.0031168608485254404,-0.14784800058092817,9.760939743162746,-0.00031501037624462823,-0.0005823330884170197,0.0018888204066841113,-0.35730320466694515,0.8292783596696268,0.4823759704342904
6210,0.900,-0.9999963993689461,-0.0002038887523093052,0.00040691239330208637,-0.002644636236646965,0.051260974653366057,-0.1369293738558621,9.749306886568492,0.005296297894687456,0.0023143391961438393,-0.0010744221604250584,-0.35435849227102617,0.8281916659595153,0.4889845055740945
6211,0.908,-0.9999964031563303,-0.00019363935715470165,0.0003983525707700171,-0.002645277571576386,0.04234779894106668,-0.15283418742660412,9.772196354225832,-0.0008171592105695694,0.0028809276680358737,-0.0010457367224213875,-0.3536087535895882,0.8256602461157986,0.49660411664909987
6212,0.917,-0.9999964082268462,-0.00019407192103805017,0.000388237718461,-0.0026448328814713336,0.023314766339571406,-0.16721760655529636,9.754926269857355,0.0016734349729292434,0.0037469629864910568,-0.0006384615803684824,-0.3609372106931626,0.8217151683726364,0.4947473062905949
6213,0.925,-0.9999963895469015,-0.00019763830185492827,0.0003879137711501087,-0.0026516702604018508,-0.006324356489177674,-0.16334583210945416,9.783834590246613,0.0024905902027633595,0.0008660444077591351,0.0004073025766698013,-0.36048525463307013,0.82725132676649,0.4787614686802705
6215,0.942,-0.9999963689542305,-0.0001982861154424334,0.00038549129420874424,-0.002659728827021931,0.018639362395870652,-0.17486151411025153,9.766376869072776,0.001584873955942877,0.0012241944791286752,0.0005162482006856382,-0.3519264992514907,0.8276192671957208,0.4848393403174533
6216,0.950,-0.9999963409720402,-0.0002005363083461301,0.0003936286372807837,-0.0026688732109456698,0.002173301601824742,-0.14682624914815692,9.76095542182955,0.0018113976510010972,-0.0007163080765350792,-0.00021782403246495936,-0.3453327033391274,0.8320327096424349,0.48571154814849793
6217,0.958,-0.9999963051489584,-0.00019244052811089285,0.0003992454722166551,-0.0026820250049984238,-0.027227084475778048,-0.14306096203894172,9.78986065237593,-0.0003150817034293621,-0.0005822291490665585,0.0018888200898129982,-0.3529037039632927,0.8295670360529585,0.4845578378186831
6218,0.967,-0.9999962522454813,-0.00018820487362731616,0.0003816929879802886,-0.0027045118561470597,0.004007460852080333,-0.18097850752204914,9.737666958758748,0.00022612695773842486,0.005463369145135713,0.002093327356786114,-0.35631420547318404,0.8242614502249591,0.48784775907717365
6219,0.975,-0.9999962375514202,-0.00019650944845808435,0.00039100350862572765,-0.002708022026569724,-0.025610491862757125,-0.177116778928569,9.766573100996657,0.0036227764525140903,-0.0014326757842246555,-0.00043557036374188777,-0.3604734714086304,0.8244262765365732,0.4839468008343057
6220,0.983,-0.999996202283175,-0.00020273065138583398,0.0003876356497937934,-0.0027210398956716915,0.013880540744596305,-0.18222427150049392,9.777833155033214,0.0028545774380305824,0.0018661773726359253,0.002921389042652478,-0.35143391696796766,0.83058798350883,0.4867315006802718
6221,0.992,-0.9999961833801123,-0.0001987440222745239,0.00038433077642811245,-0.0027287388803325452,-0.04453654735851027,-0.19112828576991003,9.74930842186985,0.0006791667009997687,0.0015823552249647935,0.0006251626942932109,-0.35557427898938104,0.8299448844879268,0.4911494091255934
6223,1.008,-0.9999961380695357,-0.0001994365998123445,0.000382602070388271,-0.0027454847865347938,0.000828031705385849,-0.2142809339171168,9.769003445915121,0.0015848420421961233,0.001224172505822165,0.0005163057791913538,-0.3536273648081184,0.8201218221529704,0.4884140537029342
6224,1.017,-0.9999961348603544,-0.00020057582637236576,0.00039078892708380484,-0.0027454175829393604,-0.011987088903943425,-0.24643546529552468,9.760172738304464,0.001811359727658253,-0.0007163769064102126,-0.0002176973412357837,-0.34924166033117754,0.830787487840525,0.48452474605900714
6225,1.025,-0.9999961154680155,-0.00020414313115677386,0.000390466578982647,-0.002752255495448435,-0.005268907497527348,-0.19596593799831258,9.760575002778312,0.0024905053479184432,0.0008659907586339906,0.0004074627764494961,-0.3611872689165231,0.8297206101418881,0.49214348213240655
6226,1.033,-0.9999960198835266,-0.00020031284257863538,0.00038903217764601437,-0.002787246999495596,-0.003385423904451116,-0.230060195744508,9.73729236045454,0.00041271223264592187,0.0014184386217640896,0.00691687883455729,-0.35581657484454676,0.8260543007763199,0.4919614969359963
6227,1.042,-0.9999960047279509,-0.0002086183011556253,0.0003983439968531004,-0.0027907577108865346,0.015372984270149733,-0.2154766793684637,9.75456730446183,0.003622655084163922,-0.0014328676344736824,-0.0004353142134450688,-0.36045721397256214,0.8328739687780863,0.49110105699037515
6228,1.050,-0.9999959770214529,-0.00021635984326738827,0.0004115841516003704,-0.0027981650799026683,0.015512203348290617,-0.21519507903434498,9.75457330048752,0.003307413855381469,-0.0020149272082624196,0.0014535951504201531,-0.35606591258667,0.8184379596647209,0.4896747281427897
6229,1.058,-0.9999959299166045,-0.00021389704071159396,0.0004038990898036609,-0.0028162499546334177,0.015485010814505196,-0.21501855135492068,9.754577236270888,0.0010431711134447096,0.0025827082952407142,0.0031391124565023298,-0.3580181145755633,0.8225974037481842,0.49008312806433385
6230,1.067,-0.9999959082892494,-0.00022398099208154865,0.0004104830417856472,-0.002822187262876716,0.04619280511838512,-0.236268323083257,9.788728930553857,0.0039865371498845024,-0.0004325964154350285,0.0020787924281779114,-0.35510112457500065,0.8210189195371245,0.4844921308296891
6231,1.075,-0.999995893631595,-0.00021717860043139883,0.0004138323677205145,-0.002827418641599003,0.024118215810694843,-0.19857370621206702,9.73169609489992,-3.053587656169643e-15,1.186e-321,-4.579669976578771e-15,-0.36093499200093254,0.8217349843841111,0.49572366519975697
6232,1.083,-0.9999958912259149,-0.00022387519985406465,0.00040844757899236175,-0.002828529964325498,0.052837801807716384,-0.1856832010377937,9.789127942976199,0.0031696847640379916,0.0024482513861169915,0.001032600258215237,-0.3502138054403459,0.8313153005785011,0.48646977504631883
6233,1.092,-0.9999958711909659,-0.000227442396493892,0.000408126692899149,-0.002835366568921802,0.040667448268016444,-0.1495794317756327,9.772253852702137,0.0024904665322624158,0.0008658768655856618,0.0004075323683837956,-0.3587685205052521,0.8275647731641651,0.4821698873612595
6234,1.100,-0.9999958492867721,-0.00022709428850199628,0.0004226419771180883,-0.002840987710419884,-0.007493055656888811,-0.16013499216125718,9.783886844494544,0.0011320668428551998,-0.0022988858881207684,-0.0008426189911775236,-0.3497193227297444,0.8291729813924371,0.4891982383826437
6235,1.108,-0.9999958015228011,-0.000224631069537102,0.00041495744123979105,-0.0028590711735380437,-0.008850435628019708,-0.14231250422809036,9.720838768435984,0.0010431306317108,0.0025828426331015587,0.0031390702890224057,-0.3519030566353238,0.8246541606685334,0.49515551073466757
6236,1.117,-0.999995779436965,-0.00022103430546178832,0.000413918007444467,-0.0028672153696041197,0.0110862765491592,-0.14555521929350682,9.801158773137269,0.0006792005051230255,0.0015823816558289574,0.0006250780313715369,-0.3594858855140062,0.825989898739027,0.4887966522905061
6237,1.125,-0.9999957595708477,-0.00021704788936374782,0.0004106162879790641,-0.00287491300755705,-0.019840922500602792,-0.12404755798141943,9.767009274093922,0.0006791951670458446,0.001582382088316337,0.0006250842041454955,-0.35485535433373866,0.8217660526182703,0.4852089832540414
6238,1.133,-0.9999957266677659,-0.00021271904790282547,0.0004110436921134719,-0.0028865965940896177,0.021539777495374307,-0.16359766699847714,9.754991730872971,0.0003638687602001525,0.0010004760188658097,0.0025140300468766016,-0.3545993267423671,0.8287095706917541,0.49043969074496785
6239,1.142,-0.9999957161841092,-0.00021065585584537373,0.00042402838333201935,-0.0028885009037759608,-0.001130884324774117,-0.10952333072117632,9.784280063468943,0.0011320417834466319,-0.0022989295663817778,-0.0008425807627604243,-0.3558233322389109,0.8281916659595153,0.4889878342978093
6240,1.150,-0.9999956640521201,-0.0002119248426577714,0.0004114528771653664,-0.0029082075837641892,0.021513566735499208,-0.16342126142147223,9.754994746109224,0.001722276128809191,0.004165254284478732,0.0037642005723077096,-0.35923682100695714,0.8274990269099249,0.4909631811083681
6241,1.158,-0.9999957198003369,-0.00020900134433460022,0.00040799510583247557,-0.002889678085537281,-0.008181613661714736,-0.15959166709059713,9.783895170472592,0.0009460681752605823,0.0017456222774226249,-0.005666828505188078,-0.35437346844357903,0.8280579078820605,0.48239408293725017
6242,1.167,-0.9999956725460535,-0.0002078385069644525,0.0004017734310605977,-0.0029069348859701283,0.002336559674127068,-0.17765272665760432,9.737728745277803,0.001042965656733666,0.0025829164519925655,0.0031391304790815994,-0.354352945540451,0.8282412059882023,0.49142540284699987
6243,1.175,-0.9999956383848358,-0.00020448345784785198,0.00041702838138494306,-0.00291675935751446,-0.00636751175124515,-0.19365273307436176,9.760620516642627,0.0008166910448360213,-0.0028808114260465037,0.0010464191456268522,-0.3577994670265228,0.8218813389011975,0.47886435380183917
6244,1.183,-0.999995614927422,-0.00021215624706926906,0.0004114907518069306,-0.0029250283785390283,0.014391843491756776,-0.2132878956507323,9.754616905557878,0.0031695937626799904,0.0024482096828161728,0.0010327469065045884,-0.3568099889077293,0.8305433974830116,0.4845468984549444
6245,1.192,-0.9999956234993626,-0.00020664811301003352,0.0004125730967915212,-0.0029223384674541423,0.014269450112868454,-0.21314620056863193,9.754620182102826,0.0003153840555396438,0.0005818277800685167,-0.0018889503767846286,-0.35045450482145496,0.8289041210205805,0.48798440809812627
6246,1.200,-0.9999955816475182,-0.00021730461438043425,0.00040063428780715205,-0.0029375085215928728,-0.006661534519551826,-0.19317950685889812,9.760629698468488,0.0038486927056613158,0.004030640220474989,0.001657881266633688,-0.35510357967513667,0.8261250010334289,0.4834117381288924
6247,1.208,-0.9999955847933699,-0.0002221657241624668,0.00039804562534821486,-0.002936425690798262,0.041336979295611656,-0.18221065999685876,9.749009046462813,0.0028057792006433153,0.0014476237872872286,-0.0014811997460800193,-0.351433826907813,0.8286352606487235,0.48677113260089455
6248,1.217,-0.9999955600474767,-0.00022434034512561486,0.0004060286916597136,-0.002943585814050034,0.02254546474984517,-0.19644547769453882,9.731743059032135,0.0018112222328136975,-0.0007165706855429539,-0.0002173167996454568,-0.3511831659267074,0.8316237929733075,0.4896402066601611
6249,1.225,-0.9999955095237595,-0.00023698475534842905,0.0004043074146926284,-0.002959950347107777,0.005096831468828451,-0.22832819046575467,9.777532123779384,0.004665261107529627,0.0011499484401457255,0.002704480719962943,-0.35437512120523235,0.8277989555159412,0.48166676774545636
6250,1.233,-0.9999954755223305,-0.0002269481402939717,0.00039974203920504104,-0.002972816124857074,0.001639507670568396,-0.17624180606537496,9.737754525784696,-0.001132074322256198,0.002299024754885527,0.0008423334274436087,-0.35120236559085316,0.8268126860801503,0.48119119201647137
6252,1.250,-0.9999954582726462,-0.00022027068647034715,0.00039087344058368626,-0.00298029073399177,0.025180381023807756,-0.16262145070469042,9.775105495524118,0.0008368451789692461,0.0018732904096598899,-0.0003194035445660898,-0.359981953441145,0.8264087234138917,0.4853705977028546
6253,1.258,-0.9999954624164024,-0.00021690375265512462,0.0003941623856415667,-0.0029787137125564704,0.02869852089526186,-0.14564391784984065,9.732134655727224,0.0003154694380217301,0.0005817176748169325,-0.0018889496717943957,-0.3558092034349181,0.834666819329447,0.49520536346533933
6254,1.267,-0.9999954410615556,-0.00022802702237061386,0.00039682462344267357,-0.002984692614043402,0.019954040054614316,-0.16152803913847477,9.755029593315108,0.0043015063243604336,0.00014927445521808617,0.00019063691952727867,-0.3555901393576625,0.8249194112544684,0.48416988683572476
6255,1.275,-0.9999954023072037,-0.000220899389100459,0.00040416686365593346,-0.0029972015382351757,0.019970217554528834,-0.1613661957560461,9.755032238229337,-0.00031546935137249043,-0.0005816837089334928,0.0018889579081630657,-0.35214222708749227,0.8251869274093782,0.49734296508741244
6256,1.283,-0.999995346117611,-0.00022125020017044024,0.0003898310507657996,-0.0030177513516077064,-0.01968529555308943,-0.15593403137288683,9.743764453719976,0.0017217930469249076,0.004165648827423771,0.0037641707571611192,-0.3553265295184053,0.8238723495673065,0.4927372424539967
6257,1.292,-0.9999953718197363,-0.00021553573222389,0.00039309601795535455,-0.00300921235148634,-0.007852901558956607,-0.19172085540986594,9.760657571957722,0.00031551785103729735,0.0005816646723345288,-0.0018889642271950305,-0.35655277316760736,0.8357881910596396,0.49030046333099686
6258,1.300,-0.999995349963403,-0.00023421285101148524,0.0003987396668663778,-0.003014332859742824,0.0008651876796105213,-0.17538954450828376,9.737770013858569,0.006112644238861354,-0.000567403843691729,-2.6388679739660577e-05,-0.36486979042168904,0.8273404988181265,0.48316506994264424
6259,1.308,-0.9999953339814763,-0.0002318158655315154,0.0003965742851990981,-0.0030201002495338584,-0.005911967228477038,-0.22540724527317516,9.737399975883417,0.0006790751462007394,0.0015824612837998422,0.0006250447972868855,-0.3599703841095724,0.8282213899767275,0.49046180404541095
6260,1.317,-0.9999953129261435,-0.00022783117706921704,0.0003932759114504637,-0.0030277966836131406,-0.0355029366220721,-0.22162164828131997,9.766292764956093,0.0006790698097442031,0.0015824617189917247,0.0006250509697898112,-0.3519169459768003,0.8250184913118425,0.48904335957224854
6261,1.325,-0.999995330167862,-0.000223040663924252,0.00039605346343996533,-0.0030220914919046123,0.003915673027548908,-0.22695609815737022,9.777564612732803,0.0003155324156980479,0.0005816049843666265,-0.0018889686870358605,-0.35313771349515355,0.8264830334569222,0.48901640956821046
6262,1.333,-0.9999953388083958,-0.0002250890773541038,0.0004001202092983191,-0.0030185427291730066,-0.014860092896540568,-0.2412817668701681,9.760297551684713,0.002126705439396548,-0.00013501162582936062,-0.002106054496097156,-0.3580154087553917,0.8240867159076075,0.4912738527603195
6263,1.342,-0.999995264862633,-0.0002197055946338869,0.0004216554101687052,-0.0030404257069064325,-0.007957618954875812,-0.19089425108614447,9.760673688894759,0.00018556373456875258,-0.0040438555238565,0.004824798972649823,-0.35485064371420444,0.8279128975819211,0.48728194104771017
6264,1.350,-0.9999952380248731,-0.00022608868339706067,0.00041468507016315424,-0.003049729131848567,0.012845984924719993,-0.21055769440513658,9.754678378285105,0.0031693221072482554,0.0024482938890781343,0.0010329461096872947,-0.3482601195525894,0.8310761642238566,0.4867143804654009
6265,1.358,-0.999995231475796,-0.00023698211929303528,0.00042359451093656125,-0.0030498250498572125,0.012782224379199186,-0.21026875940825226,9.754684694517552,0.003937825854477652,-0.0008517410138453448,-0.0023231231701879343,-0.3585088721800328,0.8281916659595153,0.48899393695795296
6266,1.367,-0.9999951907697413,-0.00022889067321176597,0.00042921900904214176,-0.0030629752677222813,-0.007902658995115717,-0.1903213139908917,9.760684921505216,-0.000315517506246844,-0.0005815288093470002,0.0018889971660237788,-0.35752737643152205,0.8294567037729,0.4911637554040354
6267,1.375,-0.9999951844907434,-0.0002305073906563827,0.0004370784427718923,-0.003063792437806596,0.010911170070384807,-0.17583458165679278,9.777953911940294,0.0018111388473269429,-0.0007166481338840281,-0.0002170577360844337,-0.3590039801634182,0.8198281917667701,0.48599031574039414
6268,1.383,-0.9999951935087006,-0.00022500231170681558,0.00043816604219529216,-0.0030611017584434553,0.049096369092329346,-0.16341445143449748,9.726168875891114,0.0003155104419304184,0.000581514912776439,-0.0018890014579131227,-0.35851659257276075,0.8271459484893003,0.48559649673619687
6269,1.392,-0.9999952120322623,-0.00023091938150510732,0.0004368024502778276,-0.0030547982600685358,0.017573355672012108,-0.12532719061837688,9.778327007809525,0.002805703448599694,0.0014473764462595538,-0.0014810584562197796,-0.3462902468284911,0.8287838807347845,0.49408217388660886
6270,1.400,-0.9999951904313781,-0.00023448885672109406,0.00043648578042646186,-0.003061635061777799,0.019461997843949662,-0.15933853814976956,9.755066595986193,0.0024901802570945603,0.0008658820735463884,0.00040795361876421436,-0.3543572253196404,0.8247843089600666,0.48954204088976533
6271,1.408,-0.9999951400715755,-0.000237151195256664,0.0004406806137943458,-0.003077237907249344,0.008713667716949248,-0.14098711404665934,9.801227945024083,0.0021746517357128514,0.00028440763531087506,0.00229696772751698,-0.35850579180711295,0.83359137784202,0.49034948753998375
6272,1.417,-0.9999950827617291,-0.0002375001230146003,0.0004263457207621037,-0.00309778556085927,-0.010233427892058907,-0.15525526857959387,9.783963012699552,0.0017215952465552352,0.004166082098609421,0.0037638983848343258,-0.3524259515045712,0.82922881964094,0.47992397741566933
6273,1.425,-0.9999950488445977,-0.00024282168198217575,0.00042745601297555135,-0.003108151424693736,-0.0017219457582357623,-0.13901890010073142,9.761069828645004,0.002490157761482924,0.0008658288172736617,0.00040802830813057407,-0.36510822302588036,0.8359381553626476,0.4856772220774015
6274,1.433,-0.9999950571139206,-0.0002524254993124759,0.00043450551722793893,-0.003103745165051259,0.031046111011723786,-0.19442444266096223,9.771982903455978,0.00393778401113701,-0.0008519492088998848,-0.002322857308196322,-0.3492361729428094,0.8200920981357582,0.4869395291680469
6275,1.442,-0.9999950326630234,-0.00025257358690541443,0.00042592045312411087,-0.0031127877585495215,0.03967213364883704,-0.17814519519829355,9.749091099731512,0.001358050213662863,0.00316505952555694,0.001249882179001326,-0.35876127598294644,0.8268969041289183,0.4853579157862699
6276,1.450,-0.9999949852048174,-0.0002548502399592033,0.0004278729177714561,-0.003127545577373773,-0.008695107512228612,-0.18869143839200614,9.760715892295773,0.002174521570998114,0.0002844757477931981,0.002297096521354246,-0.36485258429938666,0.827249982549543,0.49073680547872855
6277,1.458,-0.9999949782981403,-0.00026226923041303233,0.0004220056224351834,-0.003129936837622642,0.011934215077584921,-0.20827635533592012,9.754728512885562,0.0031691334025968575,0.002448362969492855,0.0010330297637172498,-0.3592405123405311,0.823314812812118,0.4893387708486577
6278,1.467,-0.9999949820404866,-0.0002595787013678686,0.00041644181388566116,-0.0031297106831740633,0.020467762686583138,-0.1920451144663255,9.731835481366101,0.0009946385186057275,0.0021638658824618654,-0.0012640903644787482,-0.3582850043684778,0.834603761509101,0.4800723942561063
6281,1.492,-0.9999949802859024,-0.00025376090219482076,0.0004194637343476044,-0.003130344801812043,-0.039067260408739944,-0.17849894529553068,9.768592811828162,0.001040444462017667,0.0006761641848700796,-0.0011232995690598666,-0.3614441776490127,0.8298507584334214,0.4865250192019323
6282,1.500,-0.999994949085949,-0.0002476366968417514,0.0004269607453671472,-0.003139774383450557,-0.03868563011697339,-0.18428285809801076,9.789615108465046,-0.00031563073656365616,-0.0005813044749292886,0.0018890204320549638,-0.35045415583835565,0.8213373199376683,0.48813798179053924
6283,1.508,-0.9999949574555717,-0.00025724201467618147,0.00043401105860006256,-0.003135366705223007,-0.009162194076525389,-0.18787609675907876,9.76073119324123,0.003937789066557359,-0.0008520743668372372,-0.002322570913457955,-0.35947933075499,0.8282461599910711,0.49168114310729194
6284,1.517,-0.9999949507761611,-0.0002584907982593171,0.00044212236557930265,-0.0031362609114586604,-0.029840439989427786,-0.1678403210001302,9.766724914539095,0.0018110761744746394,-0.0007166747006195057,-0.00021675931695543902,-0.3584866627426936,0.8279016453592365,0.49876743402972995
6285,1.525,-0.9999949534012778,-0.00027090863125472014,0.0004425192678640289,-0.0031343192542507363,0.02036904519153586,-0.19112288097977836,9.731853844307254,0.0046167012635506864,0.000730492404018658,-0.001697625633025517,-0.3529027102469813,0.8200524661128087,0.4849951331590094
6286,1.533,-0.999994954103491,-0.0002718287853890094,0.0004506824728057886,-0.0031328520515964907,-0.00037434184760653974,-0.17106001918366565,9.737847061582896,0.0018110627583764714,-0.0007166644900737634,-0.00021671786544155051,-0.35752675421334856,0.827997115630689,0.491437569071793
6287,1.542,-0.9999949635284857,-0.00026632592706592986,0.0004517737296159548,-0.0031301579290368394,-0.02111186604602607,-0.15117180620561355,9.74383651471351,0.0003155896687624766,0.0005812159690000353,-0.0018890310905369766,-0.35559230176229584,0.8236791434554273,0.4832182978769518
6289,1.558,-0.999994931026679,-0.00027163963703699526,0.00045927546113262187,-0.0031389805520200356,0.03375612769825533,-0.1670683363695002,9.77220542499648,0.0021505259429978408,7.465309493316446e-05,9.572847253739314e-05,-0.3524141007350155,0.8249392272659433,0.48513903351017157
6290,1.567,-0.9999948816123904,-0.0002647343822417904,0.00046658618748687743,-0.0031541975299625292,0.039124630285904766,-0.1759943471131407,9.74913237710611,-0.00031558958719695774,-0.0005811820047952529,0.001889039319300481,-0.3602353990450576,0.8236395114324776,0.4812761210170575
6291,1.575,-0.9999948692573545,-0.0002702338760328727,0.00048255930121922233,-0.0031552447036317863,0.030550328462212218,-0.19194618883031525,9.77203345927643,0.002943133008722882,-0.0030159462122418663,-0.0010581896918677315,-0.3585115554851658,0.8262141730850655,0.48781312024212303
6292,1.583,-0.9999948580818562,-0.00027513700264342395,0.0004833351311477792,-0.003158242648922,0.03935795295505307,-0.17566694066369323,9.74913734308584,0.0024899822196908367,0.0008659587307669595,0.0004081206251433595,-0.3550943978985842,0.8315792069474892,0.487452275711119
6293,1.592,-0.9999948105902537,-0.00026986009029741665,0.00048230840659648535,-0.0031738536032765406,0.028576209246333483,-0.15737328245488022,9.795290602363236,0.00036337024134653587,0.0010014866961810059,0.002513855020912048,-0.3580145020446246,0.8284902503485843,0.49167286039349944
6294,1.600,-0.999994769248378,-0.00027031648287447504,0.000492529121623741,-0.003185250374153325,0.04800912244161143,-0.15941945155653423,9.72624060484048,0.0014954258473686625,-0.001297819370256994,0.0016724114695785056,-0.35852379206498913,0.8268374560944939,0.48242828427149775
6295,1.608,-0.9999947466389173,-0.0002738871518728366,0.0004922149788810515,-0.0031920847123072743,0.03930495644539033,-0.1753151379125136,9.74914388957673,0.0024899768582835823,0.0008659201797978748,0.00040813511288519924,-0.3626694500969421,0.8327402107006312,0.48451562743910287
6296,1.617,-0.9999947528340886,-0.000273070783516185,0.00048758898640575174,-0.0031909236309071664,0.039182512786661204,-0.1751734511979464,9.749146929284928,0.0009945583756067271,0.0021637248139250087,-0.0012642942022458336,-0.3582773095453989,0.8241722781733224,0.48345858228423033
6297,1.625,-0.9999946669276741,-0.0002796786177787713,0.0004785011840064308,-0.0032185295863382357,0.020214650781703647,-0.18943637188324125,9.731887141146291,0.0032166000216938264,0.002869016766779824,0.0054359198347928945,-0.3577892629093996,0.8412635572021218,0.48335478313150054
6298,1.633,-0.9999946646685164,-0.00027624254871920744,0.00048074216388952927,-0.0032191942357685036,-0.00939322084918157,-0.18554462305572844,9.760775571220512,0.00031565056936867997,0.0005810600292922203,-0.0018890850456952362,-0.3585262133925671,0.8312112665182586,0.48136275354093455
6299,1.642,-0.9999946473186824,-0.0002770021748049406,0.00048708231902541677,-0.003223562407301982,-0.011369344674614956,-0.15122046685028254,9.784024951639797,0.0018109946808793664,-0.000716725400017519,-0.00021656976017974403,-0.35459104041906236,0.8295161518073244,0.4940861746840923
6301,1.658,-0.9999946007970202,-0.00027026942468112453,0.0004820195259494449,-0.003239288258740609,-0.04198762674622795,-0.21500741514589197,9.74633483659518,0.0006789402154643152,0.0015826382991283824,0.0006247803675399168,-0.3585032691618611,0.8270207542006358,0.4914596041812475
6302,1.667,-0.9999946018057493,-0.0002714822382606081,0.0004899434000551567,-0.0032376862448733525,-0.0665348816178223,-0.21193909814984055,9.795304408588999,0.0018109878308987838,-0.0007167355631545177,-0.00021653490551309078,-0.3575278523019442,0.8277431172674382,0.49095434360728973
6303,1.675,-0.9999946169026571,-0.0002631702375378238,0.0004976919062363019,-0.003232523766420011,-0.03699675509721801,-0.21563043678076085,9.766421337327486,-0.00036327995765407604,-0.0010016234176018607,-0.0025138548770675295,-0.35973081658961714,0.8311108422439374,0.4884490835588668
6304,1.683,-0.9999946088965412,-0.00026483139609708415,0.0005054926451115446,-0.0032336541824293597,-0.045645980351239936,-0.23162652263766553,9.789324672267849,0.0018109873728278372,-0.0007167156859279859,-0.00021653537486140102,-0.35727921863524004,0.8265622975028213,0.49293127658871744
6305,1.692,-0.9999945108693941,-0.00026926366985660644,0.0005216136426034285,-0.0032609273782042195,-0.04680938919566984,-0.21376911596527123,9.726262733394973,0.0026750315439908515,-0.003176466816602978,0.0052342368940464035,-0.3550946711336585,0.8254719940067882,0.4873320357357744
6306,1.700,-0.999994500157272,-0.0002582741495965158,0.0005170156219080237,-0.003265829836027983,0.0007816477776255267,-0.18645671094780952,9.800953891605001,-0.0011319920782946547,0.002299404303717896,0.0008412687428830711,-0.3570457862914753,0.8301295268110155,0.4882187071317439
6307,1.708,-0.9999944869159964,-0.0002637764808489693,0.0005329905737017271,-0.0032668762801790407,-0.017949882962015884,-0.20081699892188012,9.783693038819862,0.002942944901827037,-0.0030161659424092673,-0.0010577880541700242,-0.35315029905807616,0.8346731175492628,0.4834779999051722
6308,1.717,-0.9999944805331841,-0.00026748037303171013,0.0005385608040304556,-0.0032676152892028854,0.03040651790586217,-0.18992772616980824,9.772073346344284,0.002126574867432355,-0.00013578577965042801,-0.0021056429760220327,-0.35607667652514946,0.8232256407604815,0.48493794352271274
6309,1.725,-0.999994462612989,-0.00026824068820456874,0.0005449022217210277,-0.0032719828638890633,0.039164125815961834,-0.17371433402081204,9.749173111424566,0.0018109463297686361,-0.0007167412656796361,-0.00021651279266362227,-0.3524150719362882,0.8339656164910666,0.484711646150001
6310,1.733,-0.9999944336095906,-0.00027047146020405894,0.0005527530114859974,-0.003279338215530112,0.05798367410247392,-0.15913152248401816,9.76643657048927,0.0018109402294749788,-0.0007167407642407458,-0.00021650573063224584,-0.35656915443638826,0.8300254927507729,0.48309171328407113
6311,1.742,-0.9999944155450734,-0.0002712320775799177,0.0005590946638840042,-0.0032837059832546626,0.06478096899446985,-0.10869093173558697,9.766777861327718,0.0018109341293864707,-0.0007167402628018551,-0.0002164986686620704,-0.3555924481100472,0.8268523181031,0.4831538960059399
6312,1.750,-0.999994303365172,-0.0002650775615201642,0.000563870603369084,-0.0033173816533604446,0.08555651155689822,-0.12843541776264944,9.760796050297216,-0.0002678644156515256,-0.00016006128102769704,0.006292084789570279,-0.3575282831422891,0.8250531693319233,0.49076474777085544
6313,1.758,-0.9999942252385298,-0.00026606175576139834,0.0005680911782504093,-0.0033400558600596756,0.10631118428821766,-0.14818104240007562,9.754814557983943,0.0018586325308447508,-0.0002959378941549963,0.00418648731254357,-0.34995676161762423,0.8282560679968083,0.49214768585772717
6314,1.767,-0.9999941987938591,-0.0002605111793103343,0.0005504579549494653,-0.0033513442964466984,0.1060972219329,-0.14809908717683565,9.754818132829753,0.000226128722797771,0.005464788912679442,0.0020904898774256305,-0.3528945815289472,0.8242763122335651,0.4885722612370441
6315,1.775,-0.9999941536178277,-0.0002524243246881122,0.0005560879813759896,-0.0033644878186526376,0.06837212504898045,-0.17697284706588853,9.720298001711154,-0.00031570238996119214,-0.0005808808939589848,0.0018891700230712065,-0.35095246497276317,0.8222245093160848,0.48372566031356984
6316,1.783,-0.9999941230894386,-0.00025208925545465563,0.0005479243108849777,-0.0033749098568775257,0.057562455764618124,-0.1587401328831826,9.766445431768368,0.001358020029127569,0.0031652914024013425,0.0012493893477750623,-0.350221874816173,0.8378363841911982,0.4829187611321497
6317,1.792,-0.9999941281582277,-0.00024184801751921236,0.0005393882049487336,-0.0033755323976253472,-0.0183968685824593,-0.1998791057894235,9.783711414207533,-0.0008161664864946817,0.002880376676603379,-0.0010480268556636652,-0.3538472905660638,0.8244893343569192,0.4990703386596802
6318,1.800,-0.9999941501544781,-0.00023368535495900912,0.000530626571624399,-0.0033709766269744584,-0.07017141272543409,-0.15870174342079074,9.755503890968576,-0.0005004426427886913,0.0034612552341297172,-0.002937159413702084,-0.3643853481137194,0.8263294593679926,0.48147514823735027
6319,1.808,-0.9999941653060319,-0.0002253764956081576,0.0005383792741640765,-0.0033658144757981044,-0.11849491201261546,-0.16941700890381273,9.767122958431706,-0.0003632004684771318,-0.0010017690638635826,-0.0025138744646070396,-0.35240436734001584,0.8184330056618521,0.4894223166062123
6320,1.817,-0.9999942094361415,-0.00023529077996306148,0.0005280813077615891,-0.0033536342328314463,-0.16008250828991813,-0.1296665072656379,9.77908245831255,0.0038002602058876023,0.0036102957023270064,-0.0027451818053743355,-0.3604675276102683,0.827898035573315,0.4865624319734118
6321,1.825,-0.9999941748078819,-0.00024448496814077366,0.0005144598492895795,-0.00336539870850941,-0.1396504286433053,-0.14916231796518023,9.77310359399795,0.003847621016938295,0.004031245682655399,0.0016578586270925935,-0.35388231377132257,0.8258858646787842,0.48365800790983177
6323,1.842,-0.9999940909948327,-0.00024194619861351384,0.0005396010334672242,-0.003386483158055647,-0.09915363570519281,-0.1714018203312788,9.772772546398315,0.0011556898122319361,-0.002088985595940983,0.0013604587040935252,-0.35291348544297996,0.8250842375660825,0.4802533945488547
6324,1.850,-0.9999940281444016,-0.00025079425401587863,0.000552503626182158,-0.003402281222854561,-0.07387989036563057,-0.26000608449486545,9.795013863047815,0.0033060297984071336,-0.0020144727423641352,0.0014565120967285326,-0.35581953958766294,0.8301790668397023,0.4906568304682203
6326,1.867,-0.9999940565753781,-0.0002568412189376855,0.0005769473223123104,-0.0033893920243672944,-0.002929993919885493,-0.2177123264714532,9.757674494442442,0.0023531193033800107,-0.002077168495817385,-0.0028382861482563445,-0.35949780382867796,0.8317440332591033,0.48355187225553675
6327,1.875,-0.999994063917875,-0.0002607473771714473,0.0005831364968602242,-0.0033858664540720026,0.03173604463740499,-0.22199879926663343,9.74888049036488,0.002126566781467746,-0.00013604813971743946,-0.0021054699741396205,-0.3616998419451553,0.8270617304405324,0.48145418360697306
6328,1.883,-0.9999940686291361,-0.00025806093057144727,0.0005775807505120647,-0.0033856331134653086,0.02967373624288043,-0.18762613177075252,9.77212006109386,0.0009945846803768145,0.002163469202972597,-0.001264551487621342,-0.35485400552510743,0.8286154446372487,0.4858025407137335
6329,1.892,-0.9999940662051863,-0.00025198005427361323,0.0006049684550077311,-0.0033820221227300086,0.0679995453282863,-0.1753058849370781,9.720330822716535,-0.00022581412291717125,-0.005464979075471645,-0.0020900764463674523,-0.36217368917743564,0.8269464441576052,0.48780658008117633
6330,1.900,-0.9999940423548891,-0.0002555535453893692,0.0006046571110450551,-0.0033888548053565585,0.036738541484422495,-0.1372089269370369,9.772450931027858,0.0024897794144437897,0.0008659739506123417,0.00040826944598484503,-0.3548416451125715,0.825307167695174,0.49124187057521496
6331,1.908,-0.999994073426711,-0.0002629641834452916,0.0006197872407261169,-0.003376362698013622,0.07499111368666002,-0.12468700528611633,9.720663151698052,0.00325846875598604,-0.0024355588768167386,-0.0029462956789209765,-0.35581839646898994,0.8294567037729,0.4911598718930349
6332,1.917,-0.9999940256347557,-0.00026998679117398353,0.0006313754387224233,-0.0033877967742982013,0.08521118900763978,-0.12602663955598106,9.760830469596762,0.003306105230668136,-0.0020141955222639104,0.0014566078752190912,-0.3597355947542675,0.8264285394253664,0.48634640182473093
6333,1.925,-0.9999939501591348,-0.00027464919813311974,0.0006303775699973222,-0.003409814814218958,0.13346295224797197,-0.11511244152449149,9.749206307365027,0.0025374327979775318,0.001287426331545251,0.00481112565967446,-0.3570461833592622,0.8267073078029608,0.4880439732655431
6334,1.933,-0.9999938928437281,-0.00027973832632480824,0.000625677286971598,-0.0034270321924387355,0.14733214423549973,-0.18499856639847265,9.74291068645504,0.002853030030374944,0.0018680736489786614,0.0029219735150034596,-0.35460980924286334,0.8273949928496823,0.48582675587683694
6335,1.942,-0.9999938666005883,-0.00027960236421548465,0.0006172304767635993,-0.0034362203452893507,0.17460887122612473,-0.15434585944291687,9.737265996030692,0.001357850328452936,0.003165517059907366,0.0012490221656549225,-0.3524069125003064,0.825491810018263,0.48830229198479286
6336,1.950,-0.9999938348721709,-0.0003010937716225864,0.0006162213219428317,-0.0034438106034672617,0.10070803691283578,-0.229424983155339,9.73132024479579,0.006790255114415017,0.0010150170106544862,0.0006004771860505349,-0.35411777037487846,0.8301146648024094,0.4874797805024428
6338,1.967,-0.9999938415162202,-0.0002815383169077601,0.0006009270397885106,-0.0034462374413810324,0.03311222956062516,-0.24602898552374242,9.768847357093396,-0.0008162035346069777,0.0028801717644778477,-0.0010485644783816755,-0.3611876772418293,0.8265424814913466,0.4919637942761279
6339,1.975,-0.9999938824290996,-0.0002763629517029831,0.0006034030931615533,-0.0034343314636788177,-0.09471027304091384,-0.23772155541135787,9.801050861300928,0.0003157267364701812,0.0005805675747084364,-0.001889194107783763,-0.35926180380958395,0.8277642774958601,0.47996923540013847
6340,1.983,-0.9999938881986989,-0.00026612309790430196,0.0005948710883193671,-0.0034349486362777776,-0.1738532940170253,-0.22700973751822373,9.778476413052042,-0.0008162530228513537,0.0028801663858785383,-0.0010485362462050946,-0.35631084366228105,0.8235589031696313,0.48932715941115035
6341,1.992,-0.9999939265653836,-0.00027354865226435226,0.0005912362481963111,-0.003423805365380587,-0.1967779368260379,-0.17286148470393795,9.80767630402304,0.003121131114772711,0.002027134488823605,-0.0033698930608111596,-0.35826680452986415,0.8249986753003677,0.48808142513251696
6342,2.000,-0.9999938794388358,-0.00027301819406979835,0.0005998468806275841,-0.0034360922066610793,-0.20683990906352592,-0.17107368527312292,9.767512083226054,0.0014951030884629566,-0.0012973385184785898,0.001673102059885126,-0.3582759157066903,0.8300453087622477,0.4840719557042338
6343,2.008,-0.9999938045508105,-0.00027520986963098956,0.0006053012706410286,-0.003456693491572803,-0.14851836117593248,-0.16185616755264248,9.796061010236006,0.0018581685572779181,-0.00029507630081160676,0.00418683044600025,-0.3560662615697693,0.8260047607476331,0.48952115445037664
6344,2.017,-0.9999937611293247,-0.0002794238837186175,0.0006235457548765251,-0.0034656623337486893,-0.058649917635294896,-0.19061280839162628,9.772502214180204,0.0026270149881514283,-0.003596973345510441,0.0008325744679798284,-0.35363489076840743,0.8268919501260495,0.4851021755259778
6345,2.025,-0.9999937393114207,-0.0002687962277793015,0.0006188482763507488,-0.003473631149342582,-0.019096208997812624,-0.19591852667373813,9.783790185949885,-0.0011319387058576582,0.00229963704384507,0.0008405586377129735,-0.35631440810853204,0.8286550766601983,0.4877585872557725
6346,2.033,-0.9999936657939635,-0.00027926966495361367,0.0006423361598051428,-0.003489668274090438,0.10494669686285342,-0.14396558257141,9.754892458255327,0.004122007742739888,-0.004894332396881292,0.0025057730704440913,-0.35753592473238166,0.8222988193591154,0.4874019854796442
6347,2.042,-0.9999936227372783,-0.0002823628348704719,0.0006457068196912703,-0.003501116779936642,0.12785413481926347,-0.1977739587239301,9.725696924141642,0.002173927814029775,0.0002854658319345665,0.002297635254125991,-0.3509452542230154,0.8222889113533779,0.48689882676834684
6348,2.050,-0.9999935741977899,-0.0002818325319177894,0.0006543182213905492,-0.003513403082384596,0.16212258103089677,-0.11685294829286928,9.720360017946986,0.0014950140123231514,-0.0012973314997196824,0.0016732020730424678,-0.35021184872567085,0.8249838132917615,0.48733084797021425
6349,2.058,-0.9999935482538985,-0.0002832693772689131,0.000662573869317599,-0.0035191199050208376,0.15347836796885986,-0.1327595963353447,9.74327123652218,0.001810746633747513,-0.000716895280060885,-0.00021604870220838447,-0.3577690950985915,0.8250828933491355,0.4922298409218844
6350,2.067,-0.9999935244786232,-0.0002792893742245675,0.0006592870311268156,-0.0035268029258077238,0.12397654652943094,-0.12888731700769643,9.77215427788741,0.0006789127037972293,0.0015828031301577336,0.000624424157002714,-0.3570561449592588,0.8261299550362976,0.4836602661544692
6351,2.075,-0.9999935766529296,-0.00027587936460688665,0.0006595330048378313,-0.0035122015421992793,0.05687830023896071,-0.15394646197724315,9.76652617760855,0.0006314832501423503,0.0011608319697825364,-0.0037785140935383214,-0.357549473293668,0.8273058207980457,0.4814397982330368
6352,2.083,-0.9999935135821137,-0.00027622301128173697,0.0006451996691800326,-0.0035327343424540222,-0.003582282850355703,-0.12867241548048194,9.761211195528738,0.001720884103911851,0.004168032764158749,0.0037625599650442346,-0.35460954726530836,0.8337462961478965,0.48594204186210366
6353,2.092,-0.9999935105485797,-0.00027251905228151623,0.0006475631353384471,-0.0035334481855676704,-0.03998916357797049,-0.17511001120177735,9.789778244292725,0.0003157805773708487,0.0005803977327412773,-0.0018892522989115137,-0.35703400306703553,0.8273044765810986,0.49340403928577914
6354,2.100,-0.9999934501816083,-0.0002851616082554187,0.0006458411430907438,-0.0035498121018463676,-0.05882041664577017,-0.18934991689347677,9.772525740629552,0.004663436250406561,0.0011514614881527293,0.0027062122344973156,-0.3494856764931124,0.8281024939078787,0.4845797947371491
6355,2.108,-0.9999934852633456,-0.0002892716544729488,0.0006494610971440835,-0.0035389197590241428,-0.0569023847590734,-0.22331571148077203,9.749308265754234,0.002442312301079611,0.0004438041845839874,-0.003994448666436312,-0.3548417914603228,0.8284803423428468,0.49117746870420304
6356,2.117,-0.9999934362276568,-0.00028874213847369863,0.0006580732641395751,-0.0035512067188748515,-0.03810581396451913,-0.20871209752068762,9.76656736996578,0.0014949555768013184,-0.0012972273967401104,0.0016733380318645875,-0.35193681288919687,0.8226433339909497,0.4803007153004899
6357,2.125,-0.999993382340761,-0.0002892603749164209,0.0006682739930248066,-0.0035644092063992086,-0.01924301336057161,-0.1941457181629872,9.783825237706655,0.0014949449140601466,-0.0012972265129337491,0.0016733503853045254,-0.34751914306487847,0.8260245767591078,0.4904780958045361
6358,2.133,-0.9999933571345737,-0.0002928348138355163,0.0006679658486228158,-0.003571240137821758,0.0034954855846363792,-0.24805061280963206,9.754640758459951,0.0024895825112108442,0.0008659283436940966,0.0004084737616021897,-0.35874779191216577,0.8353198263560877,0.4912917233058868
6359,2.142,-0.9999933605592797,-0.00028805205086159744,0.0006709744172310094,-0.003570105979634938,0.018909712398267896,-0.18160781812458043,9.732039000744647,0.0003157803473456359,0.0005802958434842447,-0.0018892769446398887,-0.35045512703962844,0.8303637091627915,0.4877105944303687
6360,2.150,-0.9999933992653036,-0.00029140765032529913,0.000672793401434858,-0.0035586312598483547,0.022162359420042594,-0.23337911030823255,9.771900983044501,0.0024422517108360045,0.00044369246811457074,-0.003994419009926555,-0.3577829731825487,0.8252031336349313,0.4861226437495433
6361,2.158,-0.9999933712850487,-0.00028093558572724503,0.0006681116920841117,-0.0035682051406852253,-0.01070491178839588,-0.1776675124859969,9.760920779044923,-0.0011318991187186456,0.0022997409375653645,0.0008402435947649874,-0.3582676068683469,0.8303637091627915,0.48772834762351397
6362,2.167,-0.9999933460798346,-0.0002845101531081857,0.000667803891651314,-0.0035750367818417382,-0.002107953799271863,-0.16157617810343172,9.73800881915851,0.0024895396405016875,0.0008659850048298806,0.00040852440373642673,-0.36608974434404007,0.8231959167432692,0.48349615143768704
6363,2.175,-0.9999933715289866,-0.0002906316572057649,0.0006660677848119135,-0.003567742288328185,-0.03167039883488999,-0.15758590600524444,9.766889988778821,0.002805309831041006,0.0014462571965532377,-0.0014807199839857496,-0.3519208061731643,0.824495632576735,0.48734463946137047
6364,2.183,-0.9999933525990854,-0.00028384387427237914,0.0006694386868076155,-0.0035729598572058637,-0.0712297080594075,-0.15210735750503995,9.75560126856088,-1.5614544162864674e-15,0.0,-5.828670879282073e-15,-0.3550936856202561,0.8281668959451718,0.48776572129949924
6366,2.200,-0.9999932724396084,-0.00027542808244076074,0.0006668041806161451,-0.0035964686957310667,-0.040562839169808206,-0.1734642952745192,9.78980518295767,0.0005208966151473303,0.0012927555391466028,0.0015690052323913864,-0.35143401008273273,0.8205753248479162,0.48669052454617273
6367,2.208,-0.9999931548317587,-0.00029350503044104314,0.0006743721916876501,-0.0036262055334894566,-0.004430190811871519,-0.1266675705225282,9.761237069889509,0.005842213632110579,-0.0007256561194289621,0.006269235778650317,-0.3592501894479342,0.8286005826286426,0.48508025770300617
6368,2.217,-0.9999931366465149,-0.00027916355937966685,0.0006747668636822905,-0.003632274391033177,0.03903099781245858,-0.2003880205241659,9.726096593831956,-0.0018106795926222537,0.000716950254425945,0.00021577014075655927,-0.35118847624937655,0.8264483554368414,0.48730334317889046
6369,2.225,-0.999993046256462,-0.0002964198617630966,0.0006863641375299899,-0.0036535569323329783,0.09732926144495063,-0.19116190711094178,9.754644651740714,0.005479135292213478,-0.0017283735929088113,0.0037556793709567562,-0.3524075910060766,0.8281718499480405,0.4880037083666461
6370,2.233,-0.9999930331538008,-0.00027927048255054035,0.0006934156177019465,-0.003657161008250521,0.11817260677671321,-0.21085547418140163,9.748683408468866,-0.0024895150181262725,-0.0008658896124958464,-0.0004085737540644183,-0.3612164864682621,0.8255526022696343,0.4792859904272537
6371,2.242,-0.9999930668437949,-0.00028693164491700113,0.0006897189449868653,-0.003648043633188329,0.09936887635725825,-0.22527397369164118,9.731430988466169,0.0031212050418677625,0.0020262267015448447,-0.0033700467700190115,-0.3580198011097745,0.8230707224546048,0.48934095090230656
6372,2.250,-0.9999930722942688,-0.00028424806135952295,0.0006841709659086079,-0.0036478043531030795,0.0764799096383316,-0.17103226731800933,9.76061364160303,0.0009946688334735775,0.002163034220196118,-0.0012649705426919925,-0.3580322065523878,0.8273553608267327,0.4838818050805137
6373,2.258,-0.9999930613389822,-0.0002887443333015246,0.0006850978124607438,-0.003650279658924119,0.10582771704849978,-0.1746712233954159,9.731741235313613,0.002489472151803804,0.0008659462784411167,0.00040862438925004697,-0.35191133170110916,0.8236034891954496,0.4915139807856209
6374,2.267,-0.9999930366566191,-0.0002847655994291793,0.0006818140179468328,-0.003657960698537941,0.033473309409249544,-0.11351861804582125,9.709458237960648,0.0006788014379606107,0.0015828973846685973,0.0006243314045657321,-0.35825378507198635,0.831463920664562,0.49381077484546587
6375,2.275,-0.9999929637020223,-0.0002783829509004837,0.00068491566250738,-0.0036777628952875145,0.00850054408572452,-0.1792011788118604,9.841286547504595,4.7032899301257716e-05,0.00042266478606118246,0.0044029597272153935,-0.36121877270560815,0.8269973284032394,0.47827990757762456
6376,2.283,-0.9999929907862456,-0.000302464645119507,0.0006793793448069536,-0.0036695145760751507,-0.002934885294734866,-0.15969692044120665,9.73803960639597,0.007421344209730703,0.0021750282642954313,-0.0031769352206984115,-0.35533881112830595,0.8254719940067882,0.4873325905230602
6377,2.292,-0.9999929620432547,-0.00028302973255622116,0.0006548236294552917,-0.0036833360073098877,-0.06026400881565561,-0.1862280616066072,9.772576935594378,-0.003395626847059732,0.006899659555487738,0.002519854710659814,-0.3497100734080759,0.8331626451614177,0.49326849990533733
6378,2.300,-0.999992947012025,-0.0002809899611294688,0.0006678304589187568,-0.00368523721423202,-0.07444589352076135,-0.11621354962217836,9.778830278742388,0.0011318871614779127,-0.002299887480156764,-0.0008399649499123738,-0.3553456473253053,0.8293179916925765,0.4843242499543284
6379,2.308,-0.9999929047830841,-0.0002856144330176107,0.0006693444037599634,-0.0036960500475724267,-0.07438725766768035,-0.11606613259365042,9.77883247579137,0.002489421053306131,0.0008659237461783935,0.0004087508878649656,-0.3555805830283617,0.8342840168916104,0.4883752503039964
6380,2.317,-0.9999928230664256,-0.0002837917009864079,0.0006802224222168106,-0.0037162582482556644,-0.06233834004820255,-0.15175991352570717,9.795792044852309,0.0011787429577905404,-0.0018770899878674445,0.0035630502898787043,-0.3582591291672136,0.8270207542006358,0.4914590493939617
6381,2.325,-0.9999927645473008,-0.0002897591189498524,0.0006770242409219722,-0.003732094703687379,-0.07435076779180519,-0.11574919008237622,9.778836510131157,0.002852256232561667,0.0018687575757072898,0.0029224168478751552,-0.353871310370327,0.8279376675962646,0.48850017053501976
6382,2.333,-0.9999926698914835,-0.0003011052407012162,0.000677566017240212,-0.0037563816671508108,-0.0812055904704664,-0.16574515802815307,9.778545136074587,0.00434684868040152,0.0005717126181538288,0.004596249334721327,-0.3506826861847574,0.8197673995153987,0.49500772687250477
6383,2.342,-0.9999925339707766,-0.0003117737183252475,0.0007009294854886492,-0.003787281044562417,0.010633785575811952,-0.22863674232639622,9.731809980059836,0.004167698308219673,-0.004471100151037692,0.006910926744852271,-0.36340455338601735,0.8307627178261815,0.4833364750851303
6384,2.350,-0.999992515065728,-0.00029743390629146787,0.0007013278444586883,-0.0037933474459650404,0.0710164124480349,-0.2537309547803792,9.737151115714214,-0.0018105590180148973,0.0007171310778355255,0.0002155417344485228,-0.35728688274037124,0.82429612824504,0.4895586063173505
6385,2.358,-0.9999925035106032,-0.0003172973564024135,0.0007079413242275654,-0.003793555596765803,0.055521372208114164,-0.31987377437869763,9.759782342389698,0.006110530955172021,-0.0005685023820853928,-2.2312537353924733e-05,-0.35313004939002235,0.8287492027147035,0.49238907983957736
6387,2.375,-0.9999926633607981,-0.00029077770569322064,0.000708471567619274,-0.003753230733917203,0.03147597892754522,-0.2480609847658787,9.725863281767374,-0.0015414501994013995,0.0008739095751775731,-0.006076908131312831,-0.35656765107709665,0.821492238243545,0.4837532823913766
6388,2.383,-0.9999926808877077,-0.00029396874576015006,0.000714872524115564,-0.0037470936292314824,0.008703602536992,-0.19401696182885142,9.755025960254203,0.002126537975051381,-0.00013710577464377067,-0.0021048667805849026,-0.3553294942615215,0.827997115630689,0.4914325759862209
6389,2.392,-0.9999926222224168,-0.0003038026204505204,0.0007198075796414901,-0.0037609947820751253,0.015476884769763461,-0.14347672145685694,9.755319919543764,0.003983998177360611,-0.00043103108844690005,0.0020826262758153785,-0.353645961714519,0.826304689353649,0.4802302889603228
6390,2.400,-0.9999925714222517,-0.00029408760650466946,0.0007335381327084608,-0.003772603159665256,-0.005159760062040351,-0.12353900590243139,9.761276807339824,-0.0009947490404342025,-0.0021628338600809473,0.001265150973240414,-0.35753633000307755,0.8310860722295939,0.48722364183684197
6391,2.408,-0.9999924886444018,-0.0002847107384234847,0.0007414401924988017,-0.003793660634829283,0.03645193930035338,-0.16323870393599293,9.749364658047053,-0.0006318972767955372,-0.0011597842370818894,0.0037787772883950766,-0.3528920558290849,0.8296710701132012,0.48968372209178435
6392,2.417,-0.9999923634938039,-0.00027790594516944494,0.0007464754776176234,-0.003826028845015901,0.05525925694637284,-0.14882871999430553,9.766614800322628,-0.00026905615036679225,-0.0001567437276619617,0.006292449213733743,-0.3619253031761566,0.8311356122582808,0.48967452528089156
6393,2.425,-0.999992363987684,-0.00027803064329057155,0.0007342746276734912,-0.0038282510440127817,0.0638424977596579,-0.1327476317341605,9.743698441950505,0.0016737277737281953,0.0037457057183946374,-0.0006409370113421326,-0.3533895851400482,0.8256814063442206,0.48561457014366227
6394,2.433,-0.9999923179902714,-0.0002861024140263748,0.000747127033827202,-0.0038371743572405597,0.04303343290104233,-0.11272732797363552,9.749656546382825,0.0033050610263296977,-0.0020141226844347954,0.0014584596499623034,-0.3489820795510743,0.8328789227809548,0.49131907171523354
6395,2.442,-0.9999923986643503,-0.0002728443536745807,0.0007473951046154376,-0.0038170106150597735,-0.0051498380617855995,-0.12331009722266166,9.761279706897263,-0.0015414173746245196,0.0008737507627767882,-0.006076981560596823,-0.35070148572650595,0.8303438931513166,0.48673479030849226
6396,2.450,-0.9999923770266409,-0.0002711927791486431,0.0007438802813089422,-0.003823478156378987,-0.026008914900360926,-0.10351510283468557,9.767233988205447,0.0009948004299262577,0.002162800443205013,-0.0012651699145106335,-0.3497239852645911,0.8340151565197534,0.48714644076276264
6397,2.458,-0.9999923817690678,-0.0002760647787979766,0.0007413133422821013,-0.003822387551473572,-0.05364656007070202,-0.13383510377852653,9.772902577961998,0.002805336969696414,0.0014457184677982723,-0.0014806088109453814,-0.3538832174274794,0.8334477117588276,0.4832603444901282
6398,2.467,-0.9999923459204696,-0.0002780291759988103,0.0007307072834728255,-0.003833649321364026,-0.0793675487462587,-0.1983949240297678,9.755366794204473,0.0016735551524081345,0.003745747581580888,-0.0006409321190076777,-0.3602106864228946,0.8292324294268616,0.4921511709634191
6399,2.475,-0.999992356981148,-0.0002725409186970224,0.0007318215534056474,-0.0038309447855295184,-0.06951598852875049,-0.19988881606053976,9.795537020264772,0.00031600290025146904,0.0005798286234615685,-0.0018893766475316656,-0.3624273824467734,0.8295472200414837,0.48360311561366687
6400,2.483,-0.9999922793288989,-0.00029256886306949944,0.0007362635972725583,-0.0038488442381366538,-0.0655727729593738,-0.26815999952543007,9.749135907931514,0.0061571444459297305,-0.00014489108014445123,0.004381094620043737,-0.351673585805597,0.8298953444592396,0.48869963525611543
6401,2.492,-0.9999922543607507,-0.00028103731882070626,0.0007300075444301258,-0.0038573728773107947,0.0013249396106729627,-0.2428481761889539,9.75477219924864,-0.0011317642550462202,0.002300065134814418,0.0008395621501017757,-0.3521713402669469,0.8307874878405249,0.4845314035064366
6402,2.500,-0.9999922140895292,-0.000295400042564147,0.0007506416756656187,-0.0038627757132840266,-0.019356043705786,-0.22288299219935992,9.760727152416358,0.0047528131069914095,-0.0037342623530448233,-0.001270225465152445,-0.3548497370034373,0.8323164320228977,0.4876809486808902
6403,2.508,-0.9999921548457311,-0.0002976809115594302,0.0007526009194876992,-0.0038775281975300066,0.029015386998834245,-0.21194622960379997,9.749112696138956,0.002173279050488273,0.0002861433562245913,0.0022982537830041273,-0.3648553351496356,0.8267370318201729,0.4895262648224316
6404,2.517,-0.999992080197505,-0.000299648718892534,0.0007579135566955394,-0.003895551302867375,0.039035544313215494,-0.21335346625650778,9.789286342188733,0.0018572357762134423,-0.00029357998641246595,0.004187702116187617,-0.355827702078255,0.8266874917914858,0.48706484041995207
6405,2.525,-0.9999920258425143,-0.00029912343886597426,0.0007665303765292696,-0.00390783926680234,0.035825054680719046,-0.16135665814109185,9.749398312176123,0.0014944464445772914,-0.0012968483767980053,0.0016741287966649105,-0.36046796970813255,0.8254521779953135,0.4863678821468997
6406,2.533,-0.9999920309456578,-0.0002952307868049586,0.0007873238904464908,-0.0039026920264471346,0.07553403034640868,-0.16664613769103453,9.760696878512185,0.000452824939767766,-0.0038831042539859183,-0.0014635930318039282,-0.35851748802600847,0.8224983236908103,0.48520244309309474
6407,2.542,-0.9999920110784638,-0.00028089344464521257,0.0007877262447767057,-0.003908754979016017,0.03418693348483193,-0.12706207935750613,9.772597387042737,-0.001810476384949916,0.0007171471784563614,0.00021533927484527124,-0.35557859254112856,0.8272202585323308,0.4892511851981254
6408,2.550,-0.9999920241335801,-0.00028458108049900536,0.000770128909970105,-0.003908655049519246,0.04267453927024459,-0.11101934741041584,9.74967772277255,0.002352474358763185,0.005328622773403061,-1.7015477625647727e-05,-0.35899440131907884,0.8287046166888852,0.49020558718882157
6409,2.558,-0.999992004741796,-0.00029765418865397423,0.0007890927991181971,-0.003908860066923416,-0.00562212047766291,-0.12138267239149415,9.761303605274243,0.004752619694978029,-0.0037344258095131887,-0.0012700018827806324,-0.3523969171277519,0.8253368917123862,0.49270086106610017
6410,2.567,-0.9999919675099792,-0.00028984475838447613,0.0007963906236998979,-0.003917482292436916,0.003286614667788161,-0.10518260003317687,9.738384266399965,-0.0003160131965587032,-0.0005796484330789519,0.0018894591485938994,-0.35266121673029843,0.829308083686839,0.4838299678396036
6411,2.575,-0.9999919399310833,-0.0002934215828933181,0.0007960879355826717,-0.003924311486485657,0.01725646631907305,-0.17520558401728697,9.732159437151445,0.002489276248725816,0.0008658335224965305,0.000408817591321058,-0.35362250784083277,0.8230954924689482,0.490551413367615
6412,2.583,-0.9999918769179716,-0.0002965619603963117,0.0007996449269034361,-0.003939380289708605,-0.012264385477026869,-0.17121518650222142,9.761034255584304,0.002173239252245324,0.00028620656400360397,0.0022983001626592464,-0.36021872508077407,0.8230558604459988,0.48861367480600704
6413,2.592,-0.9999918491654002,-0.00030013884431214215,0.0007993425712574191,-0.003946209686777325,0.0016677796371606065,-0.24113711284881761,9.754814593976644,0.0024892623108369177,0.0008658152066610149,0.0004088379343891217,-0.3572966724229676,0.8320228016366975,0.4852505532709206
6414,2.600,-0.9999918075996265,-0.000308246329960597,0.0008120001411758087,-0.003953526729674546,-0.010290794035283381,-0.20506305728909385,9.73784601010477,0.0033048142164908588,-0.0020139563632779363,0.0014590230449400823,-0.35826207139529104,0.8306573395489917,0.49016429090634145
6415,2.608,-0.999991846582656,-0.00030686188099126195,0.0008041978832649111,-0.003945360536141704,-0.0002926477806246798,-0.20644019019351084,9.778020071879453,0.0013108924711378903,0.002742124671101413,-0.003154923899888807,-0.3526419413181277,0.8204451765563829,0.49231231620036175
6416,2.617,-0.9999918408995834,-0.0003229030770587093,0.0008181573388510659,-0.003942649671767715,-0.010339611215447363,-0.20460245634478538,9.737855647539696,0.005431257963553423,-0.00215152357684068,-0.000645577119429971,-0.3551063080103469,0.8251238695890322,0.48221110545275103
6417,2.625,-0.9999918160099098,-0.00031137184617277867,0.0008119038642243689,-0.0039511736093756295,0.0016582435263855968,-0.24026518753536732,9.75483611042564,-0.0011316116877456046,0.00230020811510869,0.0008392056939267738,-0.3567905866082354,0.8309608779409293,0.4930850849200352
6418,2.633,-0.9999916866903801,-0.00032239299014673003,0.0008160642442538971,-0.003982041189894921,-0.0017102432173566413,-0.18829429621623187,9.714937790843369,0.004030270897674819,-6.857419753194769e-06,0.006486251610835822,-0.3612060715128819,0.8283317222567859,0.4838692013549176
6419,2.642,-0.9999916968289299,-0.00032446072113012284,0.0008201584788835789,-0.003978484448633859,0.04781601160778778,-0.19497477887724127,9.766413092219567,0.00212645024280386,-0.00013775244284277628,-0.002104664796257294,-0.35190470939697693,0.8243952083024139,0.49442819554287376
6420,2.650,-0.9999916835028777,-0.0003361698548276979,0.0008242344941094971,-0.003980019146722059,0.027079676804668645,-0.1748907859117814,9.772363813102555,0.00429957508313352,0.00014860115664781258,0.00019374839436563367,-0.36044428762944936,0.8293265554813668,0.4967894305692249
6421,2.658,-0.9999916569493826,-0.00033219267993976105,0.0008209574468752807,-0.0039876946375557295,0.04774599265854635,-0.19451047665311064,9.766422692932032,0.0006788101591556889,0.001583044799755403,0.0006239898797681198,-0.3533790913820328,0.8267518938287789,0.490232459001871
6422,2.667,-0.9999916548632458,-0.000328241150984575,0.0008193417339569313,-0.003988877127382872,0.025589475427777515,-0.15706004892351996,9.709273314493498,0.0006788048384500289,0.0015830452461916245,0.0006239960520903566,-0.3597169865903475,0.8200015818671746,0.49453512055742016
6424,2.683,-0.9999916383829457,-0.0003263315088106816,0.0008201599868495685,-0.003992995058142788,0.004385596767565322,-0.12874388066375628,9.758362763800648,0.0014026251906977094,0.0007226165913996973,-0.000740298958371791,-0.35068130360356814,0.8258845204618371,0.4956161463024305
6425,2.692,-0.9999916446567126,-0.00034477686699035546,0.0008284775750703735,-0.003988153781279761,0.014719602191000275,-0.1382926430539107,9.755395959484318,0.006109869103908852,-0.0005686076085196236,-2.11413793369805e-05,-0.3555846263996452,0.8257012223556953,0.48659592213839653
6426,2.700,-0.9999916089733655,-0.0003388556711981255,0.0008089098877621865,-0.004001602739834667,-0.03371459397236527,-0.14868033770714242,9.767022774594414,0.00022595868926044452,0.005466449852851723,0.0020869163488938755,-0.3482508620280119,0.8228563561143037,0.490788251764696
6427,2.708,-0.9999916290180338,-0.0003234563839365808,0.0008154957831969971,-0.003996528050029654,-0.013187482359519241,-0.16858242801500747,9.761078877316987,-0.002173001824521441,-0.00028647973367049883,-0.002298521193369238,-0.35875782411188867,0.8242416342134842,0.48687694804086934
6428,2.717,-0.9999915954063336,-0.0003298376114417804,0.0008085373809580999,-0.0040058196600994056,-0.004537503532357548,-0.15252987530615936,9.738153886647831,0.003167864571546695,0.002448917624008494,0.0010330045794117583,-0.35605641559957624,0.817057635568409,0.4938539774471958
6429,2.725,-0.999991608599079,-0.00033331919952286253,0.0008096196524655676,-0.004002017710591829,-0.040906901644851036,-0.19877976549027554,9.766763241562852,0.0024891013819255577,0.0008658428382580246,0.00040903387252942116,-0.3585027707764002,0.8282461599910711,0.49167892395814883
6430,2.733,-0.9999916149471552,-0.00033063781470773183,0.0008040825809132898,-0.004001770260726122,-0.020291376167189512,-0.21846114704087335,9.76082522119117,0.0009948756256163024,0.002162403562503365,-0.00126553343315291,-0.3643706339187214,0.8201119141472331,0.48795028488892794
6431,2.742,-0.9999916194202996,-0.00034775480975941385,0.0007944025140830873,-0.004001134889615369,-0.020514295206880775,-0.21819060529295828,9.760830807651644,0.005656847097110031,0.003314809055616042,0.0014421647636038628,-0.3624061810378752,0.8270504782178479,0.4929330191415634
6432,2.750,-0.9999916367555061,-0.00033946349267942056,0.0008021818326082468,-0.003995958944891284,-0.02060731041168872,-0.2179753771294434,9.760835419302884,-0.00036253303945037483,-0.0010038312469012975,-0.00251349926842667,-0.3602331803528275,0.8236593274439525,0.48225247992621967
6433,2.758,-0.9999916133450848,-0.0003473428749113241,0.0008145998691788588,-0.00399862719880247,-0.02048362861193285,-0.21785581596402062,9.760838349286889,0.003304536500173417,-0.002013725924356644,0.0014597813158861504,-0.35876171808081064,0.8244510465509167,0.4851633659597578
6434,2.767,-0.9999915772800014,-0.0003414208206485395,0.0007950325302242231,-0.004012072301696352,-0.013868503355141231,-0.167421043728201,9.761097923221234,0.00022577062937804838,0.005466573679660551,0.002086740643094368,-0.36168705069227447,0.8264434014339725,0.48708310930488885
6435,2.775,-0.9999915843786937,-0.0003404775324670839,0.000808877442783699,-0.004007613270102063,0.015478910987206735,-0.17118024131418433,9.73223406112712,0.0011316406030613103,-0.0023003616249801756,-0.0008388065620746133,-0.3570446544303217,0.8296512541017264,0.48871679456648065
6436,2.783,-0.9999915614678295,-0.00034124862390239003,0.0008152356444727649,-0.004011973747854073,0.015602029413893553,-0.17106087313464582,9.732235963285428,0.0018103325394854103,-0.0007172490936259981,-0.00021483710104105874,-0.3567988053864243,0.8286897546802792,0.4894683249213778
6437,2.792,-0.999991541279889,-0.000338175700119899,0.0008133015695122188,-0.004017654343641268,0.01556662608290903,-0.17095996704291416,9.73223779303038,0.0006786985967017453,0.0015831173221235147,0.000623948283273121,-0.3524059832745007,0.8294071637442131,0.48871120759812847
6438,2.800,-0.9999914795584057,-0.0003404548950464018,0.0008152627916432604,-0.004032399736620871,0.025507960281347778,-0.17239466966438424,9.772412394377715,0.0021728322316506093,0.00028664911100932504,0.0022986780470547,-0.35607183081538313,0.8264434014339725,0.4870703491973156
6439,2.808,-0.9999914778452329,-0.0003538427421845666,0.000817184723841773,-0.004031282841530602,0.054943321832169635,-0.1759349675474262,9.743553080013237,0.0046155183612981345,0.0007277671265746984,-0.0016951917661879924,-0.36267147741134353,0.8285708586114304,0.483623486361264
6440,2.817,-0.9999913911430041,-0.00033691284429924193,0.0008221145422789173,-0.004053178665465344,0.046190594405369975,-0.19185471828113773,9.766482704647748,-0.0024427111123188267,-0.0004410571139728186,0.0039938894388007705,-0.3539000858242018,0.8262155173020126,0.47583722865637906
6441,2.825,-0.999991417677991,-0.0003604906611856697,0.0008238194095044028,-0.0040442475722340734,-0.03280778102845812,-0.18094823174824384,9.743869254695097,0.006742006287046035,0.0005895926813599008,-0.0037994986311862353,-0.3538617233230786,0.8246046206398463,0.4927190517600485
6442,2.833,-0.9999913516759968,-0.00035802102065135165,0.000816147010849264,-0.004062302083592877,-0.005438428217192634,-0.15016645610613386,9.738190156613102,0.0010411594494279127,0.0025871650782369887,0.0031373729115625523,-0.34873897009990656,0.8311603822726243,0.49086501540391153
6443,2.842,-0.9999913185650701,-0.00035429042201363725,0.0008149272613008118,-0.004071015395325487,-0.0023530663800329704,-0.20193383237590165,9.778113895379859,0.0006786831408064275,0.0015831403946407452,0.000623915624134394,-0.3577839586959511,0.8225082316965476,0.4856889581858184
6444,2.850,-0.9999913233757991,-0.0003591638637547049,0.0008123673518127773,-0.004069918146962521,-0.04197126533517486,-0.19642635818496437,9.766806340190923,0.0028052021438031978,0.001444951791902127,-0.0014803411664758522,-0.357772037326669,0.8287194786974914,0.49093508243426415
6445,2.858,-0.9999913219166916,-0.0003530736855614298,0.0008169537660544216,-0.004069891500302156,0.006207268066434846,-0.18567214340910743,9.755190266821018,-2.4069288229178194e-15,1.186e-321,-4.9960036108132044e-15,-0.3570362667893429,0.828261021999677,0.4924078644163057
6446,2.867,-0.999991294739093,-0.00034909638108602186,0.0008136794933856408,-0.004077560965989201,-0.012615089951549493,-0.20010461222637232,9.737946429898976,0.0006786591222105102,0.0015831527593433404,0.0006239133866937447,-0.35118522701366683,0.8281867119566466,0.4887332036120888
6447,2.875,-0.9999913029239931,-0.0003469393444194694,0.0008098363991203093,-0.0040765027257075636,0.0059906943151789675,-0.1855765334457338,9.755192221672228,0.000994905548028424,0.002162235680508386,-0.001265636711062052,-0.35459444726004286,0.8311950602927053,0.49258695838980415
6449,2.892,-0.9999912097168769,-0.0003603491331000266,0.0008144744677195963,-0.004097226967238619,0.004893710026095204,-0.16812996439274716,9.766786263800299,0.0032359285143850735,0.00021769556404915784,0.0012467514760935079,-0.3511771914103976,0.8223978994164892,0.4922693555560243
6450,2.900,-0.9999911896240283,-0.0003493539987461645,0.0008108723031742314,-0.004103792418315988,-0.016948103061601258,-0.13094336877979237,9.784309262459077,-0.001131633874320108,0.002300478786360775,0.0008385028637010741,-0.35314578287098075,0.8330041170696194,0.48546539565404134
6452,2.917,-0.9999911840070012,-0.0003418381689040035,0.000825016092344757,-0.004102974943928352,-0.015980169391110598,-0.1480739874086499,9.772721603800832,0.0007239633215642198,-0.0008607243508241222,-0.0013640325170020348,-0.35459940554500247,0.8304182031943471,0.490405012814423
6453,2.925,-0.9999911089469115,-0.0003355396462395263,0.0008328784739436005,-0.004120164283119656,0.003861548010519856,-0.15071030374695712,9.778378753590925,-0.000316272633748585,-0.0005790222800894862,0.0018895679321331593,-0.35118854379449255,0.8279128975819211,0.4872736192384234
6454,2.933,-0.9999910798456542,-0.00033911627224658767,0.0008325803789875871,-0.004126989119101057,0.01259018475226032,-0.13461828228983136,9.755450334891929,0.0024889065730180756,0.0008658626856017916,0.0004092960688965436,-0.3543607222207755,0.8284159403055539,0.4880031926748546
6455,2.942,-0.9999910292503627,-0.0003616208231187956,0.0008331524198032318,-0.004137209956686164,-0.014985938899909781,-0.16470551743188458,9.761142470603628,0.006788027961291398,0.0010144166549225296,0.0006040664914276475,-0.35849739290861504,0.8319570553824573,0.4940455113798865
6456,2.950,-0.9999910436139051,-0.0003684411501677589,0.0008468868675167472,-0.004130342083369079,0.003830671537973491,-0.14983451392284985,9.778392225174377,0.003258130949656927,-0.0024388871055228897,-0.0029424864605490627,-0.3509297458924437,0.8229158041487281,0.49372343115232603
6457,2.958,-0.9999909941703973,-0.00036587960763467467,0.0008410414577969241,-0.004143713247768053,0.005805329520295362,-0.1839487185915958,9.755223164460398,0.0010409720374300574,0.0025874926480882526,0.003137246166843663,-0.35289323272031586,0.8311257042525434,0.48916581869673625
6458,2.967,-0.9999909682373359,-0.00035434832307353216,0.0008347945065189318,-0.004152228215495523,0.01759881949275916,-0.219780535117609,9.772225570460321,-0.0011316140388508247,0.0023005306123975713,0.0008383453602949201,-0.35313603821846173,0.8262538051080149,0.48975363274015987
6459,2.975,-0.9999909313475448,-0.00035869243600556566,0.0008361622369587141,-0.004160456119258103,0.026211616047854942,-0.20372435147665838,9.7492959130352,0.0024888502314411687,0.000865867451949108,0.00040936145632909643,-0.35630691286619076,0.8345826012806793,0.4910569476759718
6460,2.983,-0.9999909779817577,-0.0003545060659226344,0.0008350292032240987,-0.004149820088524073,0.05688389969547914,-0.22496177580086923,9.783545126291125,0.0006326227845079873,0.0011578043063024672,-0.003779175488008787,-0.3597357636170574,0.8300898947880658,0.4862720919735633
6461,2.992,-0.9999909872658446,-0.0003455709053413584,0.0008276515033331851,-0.004149814552524523,0.017229465884744236,-0.21960511076281078,9.772230172485962,-0.0008153594008427378,0.0028794292516182195,-0.0010512616709652154,-0.3572677055912641,0.8295954158532236,0.4979977129808845
6462,3.000,-0.9999909594750683,-0.00034159370945362536,0.0008243796240465473,-0.004157484829268895,0.0532902789118302,-0.17314512454167436,9.743612236029293,0.0006785630544406224,0.001583218639011729,0.0006238672999214292,-0.35191383183132247,0.8296859321218073,0.4904137721245128
6463,3.008,-0.9999909064872617,-0.0003439408659156994,0.0008281900917933822,-0.004169262361283949,0.004974541533275875,-0.1836674514721629,9.755228923031904,0.002172471058611958,0.0002870088821422208,0.002299009827101064,-0.35607255435123053,0.8300998027938032,0.4867519496188575
6464,3.017,-0.9999909098767557,-0.0003563685686761902,0.0008286079918584257,-0.004167322173514528,-0.015805584550008214,-0.16356470079611382,9.761160360091134,0.004615378625457995,0.0007274548442613259,-0.001694540010549301,-0.3533809692940726,0.8313747486129255,0.4894060640085205
6465,3.025,-0.9999907920519072,-0.0003490657313630615,0.0008149573034594286,-0.004198786623378176,-0.024757844515610472,-0.17939272973748494,9.784094462025909,-0.00040730319866851624,0.004309324079533082,0.005865119749166018,-0.3585095394282837,0.8306276155317796,0.48870030732988406
6466,3.033,-0.9999907319534005,-0.0003560961481475803,0.0008265542137659125,-0.004210226949661386,0.004626023106599093,-0.1831029957909556,9.7552397058156,0.003304039531548728,-0.002013562961386845,0.001460871305504348,-0.3582690682521715,0.825955220718946,0.48708525026304345
6467,3.042,-0.9999906894010065,-0.00034906757963216534,0.0008332312156532876,-0.004219595817883449,-0.0072632270554429225,-0.14715472914881042,9.73823494245394,-0.0003163980600077669,-0.0005788164629394941,0.001889609086572183,-0.3521589348243337,0.826502849468397,0.48999054932822944
6468,3.050,-0.9999906230305723,-0.00035890097062044946,0.0008381690390897282,-0.004233498988221229,-0.007224714896864121,-0.14700585008628547,9.738237220119665,0.003982584383952365,-0.0004303702851680948,0.002084747668602754,-0.35289254295702643,0.8282015739652526,0.48946935630496086
6469,3.058,-0.999990589017216,-0.0003630621324119126,0.0008395842986945764,-0.004240891544816127,-0.00597863971148118,-0.16427417610375225,9.801348996567064,0.0024887827674253318,0.0008658181747467875,0.0004094885004842947,-0.35632896469825937,0.8314553568757718,0.48135280646528456
6470,3.067,-0.999990558988748,-0.00036663898991335926,0.0008392883564048341,-0.004247717537325598,0.011441776915295816,-0.1320772908447264,9.75548648229321,0.0024887715023937697,0.0008658191310817986,0.0004095015774209117,-0.359490015890834,0.8313252085842385,0.48697903641775997
6471,3.075,-0.9999905620796309,-0.00036313113798404296,0.0008412127951102018,-0.00424691046226431,-0.014137626258854877,-0.19671756016452566,9.738013349524676,0.0003164183166215634,0.0005787418326175712,-0.0018896324705914877,-0.3599884826305122,0.8356296629678412,0.48249735907970087
6473,3.092,-0.9999904061085236,-0.0003683416385960211,0.0008636922638848863,-0.004278557119037208,-0.014995844045540437,-0.17937568602247642,9.749599919086837,0.0022406228726063785,-0.0019442118274519368,0.0025130275415716974,-0.36168780800067996,0.8308320738663432,0.4867498477561972
6474,3.100,-0.9999904486611984,-0.00036196994270042696,0.0008541653702455287,-0.004271061420344829,-0.00397918722949904,-0.19789210035030885,9.7781960017251,-0.0004987153355746523,0.0034580777926862373,-0.002941245736512043,-0.3526398689736489,0.8236381672155304,0.4932242732385121
6475,3.108,-0.9999904242846354,-0.0003627452050723502,0.0008605287638433442,-0.004275423393994533,0.032160065676971314,-0.15138285456160053,9.74957105808444,0.0018101588322328238,-0.0007174185427807067,-0.00021427043402565726,-0.3575307945300217,0.8313797026157942,0.4896595851196695
6476,3.117,-0.9999904431135465,-0.00036791647942326463,0.0008595629117207309,-0.004270769326277441,0.016620391120127195,-0.2174804422482275,9.772278742628984,0.0028051482284039636,0.0014445267351523054,-0.001480130237791317,-0.35460579964413774,0.8367100584581372,0.48759122207220335
6477,3.125,-0.9999904110865714,-0.0003790479327271043,0.000862241312730516,-0.004276750810271254,0.04405875249888275,-0.18673070181446957,9.766591867291519,0.004298863519611314,0.00014844557915691175,0.00019530353127204775,-0.35581827263627724,0.8267717098402537,0.49121436578389116
6478,3.133,-0.9999903380125355,-0.00038238581920466933,0.0008656288832425333,-0.004292825328065487,0.0440390846510239,-0.18646782183460497,9.766596978159178,0.002172283841974032,0.0002872206051147145,0.002299194812093395,-0.3506864420088371,0.8290131090836916,0.49335493688580373
6479,3.142,-0.9999903489306088,-0.0003844588353648868,0.0008697337103701144,-0.0042892657082277815,0.025276665380770773,-0.2007593470667183,9.74935988840144,0.002126551501821054,-0.00013881194466907536,-0.002103853387563688,-0.3523925698034464,0.8273292465954422,0.49461394696380173
6480,3.150,-0.9999902874236327,-0.0003790581209167378,0.0008708320765284498,-0.004303838384030259,0.025241149688494,-0.2006582936345415,9.749362060696097,0.00036213964600925963,0.0010046787700929455,0.0025133902675762453,-0.3604628650754216,0.8230558604459988,0.48861422959329287
6481,3.158,-0.9999902884010219,-0.00037918149481136834,0.0008586443248069529,-0.004306048647995997,0.013056758288261118,-0.16475230875308436,9.732348549842825,0.0016735596341271967,0.0037451583612149964,-0.0006421955375446087,-0.3504522298416282,0.8277034852444887,0.48898553695767755
6482,3.167,-0.9999902418075225,-0.00038676945939683613,0.0008715913429885394,-0.004313586402108456,0.014247667923126553,-0.18206840708300862,9.795463594475072,0.0033037861662714185,-0.002013453695383924,0.001461392343626186,-0.36290977797991314,0.8222740493447718,0.48619374216347894
6483,3.175,-0.999990217111574,-0.0003875447678353089,0.0008779561806827192,-0.004317948951195175,0.002368542487762661,-0.1460368860387671,9.778450141800974,0.001810107896759431,-0.0007174463025685082,-0.00021413062178387164,-0.3641105434956379,0.8231846645205848,0.49496888431213365
6484,3.183,-0.9999902508633061,-0.0003940102294088908,0.0008716968064949573,-0.0043108095479529995,-0.043961815621128095,-0.19076030195639926,9.766909892978036,0.0031672111796367166,0.0024491463896216077,0.0010332861957740777,-0.3607173719407614,0.8312657605498142,0.48405273362670254
6485,3.192,-0.9999902202645994,-0.00039758738856184625,0.0008714021000771338,-0.004317633357163477,0.012889663029783437,-0.1639121374264119,9.732362958718001,0.0024886421954985983,0.0008658461722777471,0.0004096113700879547,-0.35631655925564604,0.8271707185036439,0.4868119522870774
6486,3.200,-0.9999901648725005,-0.0003986221832941617,0.0008808337394025209,-0.004328439735970261,-0.04408201773318289,-0.19036742638077622,9.766917016309568,0.0014936160091877195,-0.0012959597245195589,0.001675622978874984,-0.362180457829319,0.8293278996983139,0.4848279634529115
6487,3.208,-0.9999901420236967,-0.0003918439011682758,0.0008842248483789054,-0.0043336428326928595,-0.03528296998799927,-0.17431624861351233,9.74398150645429,-4.74697592432044e-15,1.186e-321,-2.4980018054066022e-15,-0.36316702443798277,0.8297269083617039,0.4804266595306695
6488,3.217,-0.9999900811602588,-0.00039428373230738595,0.0008700956926960895,-0.004350293659408526,0.022793292553022055,-0.16514290362705097,9.772544340141167,0.001719181472801595,0.0041714377890745575,0.0037607585733953884,-0.353375504420743,0.8211675396231856,0.4918109391374046
6490,3.233,-0.9999900713503842,-0.00040188588870976674,0.0008902005732898594,-0.004347784645700589,-0.006372545726456735,-0.16941841491704115,9.75826800915702,0.002534072885323646,-0.0015786732764551856,-0.0015777322935024622,-0.3580176612201797,0.8247991709686726,0.4902826318809238
6491,3.242,-0.9999900235115105,-0.000410135046175908,0.0008810394146474287,-0.004359866539490924,0.003983058000614901,-0.1789852303097696,9.755316409689188,0.003529206566763491,0.0034540588700324296,0.003546661920094598,-0.3487507420668271,0.8337413421450279,0.4856846372399541
6492,3.250,-0.9999900604580368,-0.0004115565980471088,0.0008665941365589774,-0.004354149848246993,0.0036661675095260127,-0.17876090331089922,9.755320647104147,0.0019901103495772485,0.004323445730802229,-0.002532116212856989,-0.34946288986767693,0.8273292465954422,0.49460728951637234
6493,3.258,-0.9999899912412137,-0.000418673183489265,0.0008617093159214074,-0.004370307451213813,-0.00535784046427293,-0.1945385320845222,9.778262638165572,0.003167065741318311,0.0024491801781002867,0.001033401312536871,-0.35021606916265324,0.8322718459970796,0.4854736001768454
6494,3.267,-0.9999899683767616,-0.0004118957301562642,0.0008651015226885094,-0.004375509925323078,0.040801650310785365,-0.14948327468058198,9.789805204159855,3.3884028395603227e-15,1.186e-321,3.3306690738754704e-15,-0.3533817746871657,0.8247744009543292,0.4890516422860411
6495,3.275,-0.9999898364451678,-0.00042430761537569074,0.0008672254716254435,-0.004403962919410822,-0.0067398366874236604,-0.17672926260464647,9.715152870176118,0.004343963275941838,0.000574957754560474,0.004598971147160041,-0.36191828685884786,0.8233841688522798,0.49276212969086886
6496,3.283,-0.999989815418885,-0.0004099766810780154,0.0008676445979651586,-0.0044100079906435816,0.023944303985987823,-0.1979772490060373,9.749420143658385,-0.0018100311697170333,0.0007175436145603068,0.00021387823734676925,-0.36338698396848623,0.8348266916381926,0.4910680825171819
6497,3.292,-0.9999898330700976,-0.00041398988872402343,0.0008681994903897479,-0.0044055190903551505,0.023879470145576696,-0.19794974795689527,9.749420861174972,0.002488546556835932,0.0008657940038481689,0.0004097846306446928,-0.3533858938064742,0.8298656204420275,0.48723898040337277
6498,3.300,-0.9999898056630947,-0.000402460215967401,0.0008619586032873362,-0.0044140257166434705,0.023749802771532547,-0.1978947459631764,9.74942229449261,-0.0011315203200426384,0.0023008923146057643,0.0008375194895327083,-0.3548432978742247,0.8250482153290546,0.49051455538342126
6499,3.308,-0.999989768771042,-0.0004095554296521237,0.0008564784005495118,-0.004422788977329574,0.021574815371096873,-0.16350827852954616,9.772574592214285,0.0031670345987240525,0.002449123266071859,0.0010335061448247256,-0.34579981569208207,0.8302682388913389,0.4950276992807325
6500,3.317,-0.9999897392552067,-0.0004055796259377056,0.0008532114654649109,-0.004430453663715958,0.021409488713252385,-0.1633518405397349,9.772577571600108,0.0006784945860641834,0.0015833447439382309,0.0006236735850743476,-0.3602207268255266,0.8303637091627913,0.4877327859218003
6501,3.325,-0.9999897071564271,-0.00040690369725779595,0.0008613328790110746,-0.004436002283190562,0.0026192192726530146,-0.1777202305711809,9.75533999808937,0.001810023153575526,-0.0007175696634899871,-0.00021380171337044614,-0.35778719361953115,0.8324911663402491,0.48426539595617435
6502,3.333,-0.9999896838717532,-0.00040012685327026076,0.0008647264764400708,-0.0044412044192309996,0.002648544772764705,-0.1776466557820627,9.755341330153168,4.488393706182647e-15,1.186e-321,5.412337245047638e-15,-0.3560735511221523,0.827648991212933,0.48631331006505485
6503,3.342,-0.9999896911490271,-0.000396287210859126,0.0008667810786083805,-0.0044395092839361735,-0.018109132773101676,-0.15779898553288343,9.761251268713162,0.00031664096678801605,0.000578274621501104,-0.0018897317844532068,-0.3463089931372533,0.8261745410621159,0.48583266305950923
6504,3.350,-0.999989653335544,-0.00040266638995649275,0.0008598277086215611,-0.004448795112001753,-0.008230136406081903,-0.15917134759173024,9.801431561441763,0.003166968969317799,0.0024491586650089744,0.0010335480389716291,-0.36096926610069485,0.8309523141521389,0.4806409862219987
6505,3.358,-0.9999895690184111,-0.0003963936483310071,0.0008665769922221168,-0.004466964379163256,-0.027062873410630156,-0.17352513604486122,9.784194180491426,-0.00031666200368455234,-0.000578248384548493,0.0018897353268982936,-0.3526425379666522,0.8333819655045875,0.49204975472623635
6506,3.367,-0.9999895695990517,-0.0003965174145827879,0.0008543923276085367,-0.004469170034145719,0.0022961669581355107,-0.17732118426153462,9.755347341399135,0.0016736162132278134,0.003744962252412445,-0.0006424013157869796,-0.3509358923261537,0.8238376715472256,0.49101862819181885
6507,3.375,-0.9999894999093729,-0.0004038725168796433,0.0008678646870103224,-0.004481491813879761,0.010978943817766812,-0.16113565136268343,9.7324116672807,0.0033033350606779524,-0.0020133873359992637,0.0014622882086346544,-0.35044293548988237,0.8307167875834162,0.4930756144406826
6508,3.383,-0.9999894310851216,-0.00040615282518269074,0.0008698300083753088,-0.004496237726625833,-0.006461297813614295,-0.1928789591948195,9.778294847279962,0.0021717859541540785,0.00028757160431776085,0.0022996798286199355,-0.355338582923309,0.8325555683775423,0.4874330145380934
6510,3.400,-0.9999893581038974,-0.0004113688765975549,0.0008775595436259362,-0.004510470468840137,0.02701807041219838,-0.18007152520350098,9.781114849469068,0.0021492221938285514,7.407649195443212e-05,9.812060499338519e-05,-0.358498400937056,0.8297503341591004,0.49360191783600604
6511,3.408,-0.999989366710178,-0.0004047481488212093,0.000882296097331401,-0.00450823680718945,0.011020923631752626,-0.16047723420043666,9.732422498287297,2.0296264668928643e-15,1.186e-321,8.326672684688674e-16,-0.34946995426967337,0.8240916699104763,0.4914985249326073
6512,3.417,-0.9999892826342699,-0.0004201828170410252,0.0008739139157358109,-0.004527067203691357,0.029662356625365597,-0.14578952176456372,9.749664221544512,0.005338655183013316,0.0027367613355666217,0.0033332996853300484,-0.35848649387990367,0.8242402899965372,0.4988417438808975
6513,3.425,-0.9999892816592927,-0.0004381697430838855,0.0008814683441039242,-0.004524111776511031,0.020817305802979778,-0.16130451864920986,9.772612859115416,0.006108319225342259,-0.0005695364272616138,-1.7246659242622047e-05,-0.3521688626517723,0.8251932256291938,0.485621704187389
6514,3.433,-0.9999892953433634,-0.0004326921007677445,0.000882606672364198,-0.00452139156580204,0.05030774816577543,-0.16490105580789802,9.743771100807017,0.00031671650463533545,0.000578058988156588,-0.0018897898629252397,-0.359470864311376,0.8251472953864287,0.49540689088766193
6515,3.442,-0.9999892507541933,-0.00043522251621801796,0.0008859478223009622,-0.0045303480975390715,0.022762802679694782,-0.19525161639476393,9.749477940897764,0.0021716817667691264,0.0002877175567612296,0.0022997778475233495,-0.36047039103571055,0.829825988419078,0.48530235141633643
6516,3.450,-0.999989205388454,-0.00044440067502159614,0.0008723354013524128,-0.004542097043912414,0.022584082615018247,-0.19500756389800358,9.74948324183123,0.0038453097918372263,0.0040325723544078745,0.0016571468386900937,-0.3643800152760115,0.8310167161894321,0.48382191969877664
6518,3.467,-0.9999891798531971,-0.00044503034475157897,0.0008920317915159716,-0.004543831401546228,0.0018080257264792095,-0.17489373390983623,9.755391265327349,0.0014706913868357864,-0.001509371088644045,-0.0005252997272235182,-0.3541186770856455,0.8257111303614326,0.4870807728692628
6519,3.475,-0.9999891449974864,-0.00044472311424915783,0.0008834108210822733,-0.004553206987275224,-0.015709782921687055,-0.2066730201702911,9.801280252441293,0.0013569073424949227,0.00316684770520804,0.0012470788499768903,-0.3567928615880622,0.832161513717021,0.49208395606048394
6520,3.483,-0.9999891478497456,-0.00045715369545434306,0.0008838352700173081,-0.004551266686755019,0.031134614629360062,-0.17833825228237585,9.726554366451087,0.004615015774266772,0.0007260595270927325,-0.0016932337818860092,-0.35923642699378056,0.8189558643969597,0.4911365707610925
6521,3.492,-0.9999890497998722,-0.00044658938225230067,0.000895254274065683,-0.004571581570709248,-0.03458507340914319,-0.22075320494952735,9.78405227199964,-0.0009502943809405069,-0.0017338141566668574,0.005669461987299429,-0.3514300905441618,0.8318431133164774,0.4884153588209164
6522,3.500,-0.9999890460601323,-0.00046181975256151536,0.0008890183862124191,-0.0045721032985374215,-0.007101406739747342,-0.19012620028738508,9.778348315299791,0.005293469860852224,0.0023093822131988076,-0.0010697130907793334,-0.35851224524845526,0.8291383033723562,0.4875095826338984
6523,3.508,-0.9999890355761729,-0.0004508251458647726,0.0008654997696960129,-0.004579999374734795,0.003267054613824708,-0.20830085211256688,9.732271749856178,-0.0012676742331512298,0.0067636175735437815,0.00040760311365279457,-0.3560591971677729,0.8292423374325989,0.4926299190341417
6524,3.517,-0.9999889740892218,-0.0004427513706259245,0.0008711541246365329,-0.004593121128470838,-0.01648265144371123,-0.20600175384538552,9.801293114409743,-0.00031683502530616896,-0.0005779071929668349,0.0018898188246545048,-0.3609398714832569,0.8192494947831599,0.4935763975549206
6525,3.525,-0.99998903202626,-0.0004398034965899494,0.0008669354254795955,-0.00458157429667365,0.000969058458267286,-0.17402403309896278,9.755406937529017,0.0009952638752724746,0.002161338906786409,-0.0012662607471540265,-0.3565598068516561,0.8198529617811137,0.4872052165039889
6526,3.533,-0.9999890391661717,-0.0004371265937398561,0.0008614148677656233,-0.004581313379736188,0.019548319189417716,-0.1594688075441223,9.77264560633503,0.0009952523782033732,0.0021613398968211303,-0.001266247387385735,-0.35289891759573333,0.8220398669929959,0.48666412932942044
6527,3.542,-0.999989056057623,-0.0004528181440158318,0.0008564063808204175,-0.0045770393076572,-0.011360497781296537,-0.13787370066979343,9.738366847834625,0.005293417637887909,0.002309393922292495,-0.0010693727493017947,-0.3543604182677536,0.8218255006526949,0.4881369504069562
6528,3.550,-0.9999890631748345,-0.0004501411701343273,0.0008508860942367006,-0.004576777960364312,-0.010306844424600389,-0.15509077820690925,9.801495014551438,0.0009952250582738694,0.0021613189770285637,-0.001266250766869927,-0.3516692272237722,0.8316436089847822,0.4906176751438948
6529,3.558,-0.9999890288685618,-0.00045430060438289305,0.0008521562621513399,-0.004583621186010941,0.03658358540244932,-0.12686726835414563,9.726769354715199,0.0024882445996208843,0.0008657859311856273,0.00041026561711035754,-0.3531358888161001,0.8350460119813623,0.4898193788246482
6530,3.567,-0.9999889674429765,-0.00044622670158451247,0.0008578111095177116,-0.004596741689673928,-0.0016835041154936298,-0.13888651100033245,9.77855445650141,-0.0003168791256217674,-0.0005778301220172118,0.001889807335447002,-0.35168667280859073,0.8248946412401248,0.48294056160269944
6531,3.575,-0.9999889078919025,-0.00045121531847402155,0.0008589149513516485,-0.004608987199252287,0.0002859663635224501,-0.17311375346651367,9.75542317725424,0.002488241967984284,0.000865766696585048,0.0004102728973113831,-0.349477300109653,0.8269563521633426,0.48826591059689634
6532,3.583,-0.9999888819471513,-0.00045199433194054617,0.000865285996297982,-0.004613346221052816,0.019031981503288536,-0.15846290754824102,9.772662987845703,0.0018098786436718812,-0.0007177069258980936,-0.0002132574976117321,-0.3528990301709267,0.8244807705681289,0.48661458942864205
6533,3.592,-0.9999888335573758,-0.00046392365712465014,0.0008695542433456466,-0.00462184063091722,0.019055187637634797,-0.1582141932071691,9.772666972756948,0.004298091743327034,0.00014806760532465595,0.00019703550962995347,-0.3607129120412627,0.8308172118577369,0.4860153594251825
6534,3.600,-0.9999888338377416,-0.00046404610813062486,0.000857374090118659,-0.0046240426807194045,-0.020589755741087318,-0.15260777325249247,9.761328891600481,0.001673570387676369,0.0037447445598151386,-0.000642802542044632,-0.35485518241633845,0.8300700787765912,0.4852846373186854
6535,3.608,-0.999988891140646,-0.00045869879171555136,0.000863731392176086,-0.004610982411821385,0.020749178450700484,-0.19222168740521714,9.749542643166908,-4.4534038680101423e-05,-0.00042799618758841175,-0.004403136823043481,-0.3558201167757591,0.8306622935518604,0.4904028327607741
6536,3.617,-0.9999888513207803,-0.0004650763615544529,0.000856780337499674,-0.004620266829766068,0.020669763650113075,-0.1920945729300299,9.74954531765896,0.0031664728617925466,0.0024493463833698283,0.0010338406903889052,-0.35362266544610343,0.8265127574741343,0.49048205750652524
6538,3.633,-0.9999886853626825,-0.0004585626399568472,0.0008681174735544357,-0.004654593319700192,0.029975475593733064,-0.18466518440525437,9.758167323011765,0.0007687195268454601,-0.0004336795436036285,0.00303990562628883,-0.3570490467847044,0.8286352606487235,0.4867838927084678
6539,3.642,-0.9999887005001687,-0.00046943647705865484,0.0008761698850510278,-0.00464874474575145,0.03264080526342472,-0.22749278650958682,9.766607172937933,0.003936605911286703,-0.0008577513021926558,-0.002316127162227253,-0.34851869535886193,0.8192260689857637,0.4803623041395786
6540,3.650,-0.9999886717388373,-0.0004579076852687055,0.000869935632979754,-0.004657244522551272,0.011848569221460468,-0.2075376510962563,9.772501907741232,-0.001131530376857371,0.0023012364329662452,0.0008366149771872499,-0.35338568811651594,0.8374373755278083,0.4873294964382503
6541,3.658,-0.9999886044574634,-0.00045557011935667334,0.0008680217902293307,-0.004672253123828462,0.011689124090136215,-0.2075561772266544,9.772501706199693,0.0006783093992553741,0.0015835153009534108,0.0006234957446823497,-0.3594761378068768,0.8312049682984427,0.4930862335901012
6542,3.667,-0.9999885781707489,-0.00045635063756452424,0.0008743938380488971,-0.004676612829396232,0.030404778579737026,-0.1929766442538572,9.789739839702785,0.0018098447596887847,-0.0007177269063154143,-0.0002131115874261299,-0.35143076084702285,0.8223136813677214,0.48812038497937105
6544,3.683,-0.9999885720223942,-0.00045006090402053645,0.0008670084200160822,-0.004679910917432558,0.0005496638356991784,-0.1886626572418682,9.743888264787426,0.0008367664025353954,0.0018723563583801373,-0.00032142473096318186,-0.35534228551440233,0.8286154446372488,0.48580365028830513
6545,3.692,-0.9999885319464414,-0.00045501058018659966,0.0008677747051330642,-0.004687846844103626,-0.021364717565606612,-0.15149262589214976,9.761344596326868,0.0024881233497387493,0.000865805174286073,0.0004104291751458091,-0.3629061541914553,0.8279228055876585,0.48778842848272236
6548,3.717,-0.9999884478448977,-0.00045259780673087715,0.0008772583020361599,-0.004704226806750275,-0.00532368832864843,-0.1476812125644222,9.757482011355028,0.0014326476076852199,4.935964243822275e-05,6.579991859939991e-05,-0.3680218204975922,0.8241164399248198,0.4927611374027801
6550,3.733,-0.9999884578944608,-0.00044599470218742416,0.0008724409091304861,-0.00470361705964585,-0.02592340179587076,-0.15897018996275286,9.772825530425619,0.0006782684030468469,0.0015835451770878182,0.0006234729509459226,-0.35460504233573226,0.8323213860257666,0.48792448362089497
6551,3.742,-0.9999883189027762,-0.00045869185525646857,0.0008742485394563313,-0.004731527160717839,0.02853473096278913,-0.17447187550392657,9.72663246310429,0.004342169779981654,0.0005764248314739346,0.0046006771393515295,-0.3460621248073955,0.8271756725065125,0.48703274094836474
6552,3.750,-0.9999883261800906,-0.00045601679001589613,0.0008687318666826235,-0.004731263802882205,-0.0030609003389050473,-0.13605708062567573,9.778593899966145,0.00099529091278113,0.0021610958315864317,-0.0012663894914763136,-0.34826677562927966,0.8310167161894321,0.4837853037379145
6553,3.758,-0.9999882373397992,-0.0004609851279447946,0.0008702581134624568,-0.004749244736780033,0.01755087469634068,-0.15575781226504168,9.772709248507066,0.0024880643373941655,0.0008657801385858921,0.0004105288661121262,-0.3555760443262276,0.8321268356969401,0.4903725540330212
6554,3.767,-0.9999882134738544,-0.0004740767935432839,0.0008892369712610789,-0.004749465461716601,0.00890456657509823,-0.17142808521931005,9.795661900250666,0.004751116682037707,-0.0037368843553935035,-0.0012622076018157353,-0.36168099431871914,0.8274742568955813,0.48974828034477336
6555,3.775,-0.9999881647447394,-0.0004695717878522856,0.0008892576463632607,-0.004760156890567387,0.019762464291733523,-0.18957872968206405,9.749596443301543,0.0003612634684127553,0.0010060838504716944,0.002513290745627656,-0.3560774225760356,0.8273702228353388,0.48460963596409895
6556,3.783,-0.9999881699413369,-0.0004744507985502131,0.0008867136083651392,-0.004759055872000411,0.019662146835208588,-0.18945018845870726,9.749599144980964,0.0028050563365464025,0.0014432613067035403,-0.001479357186931686,-0.3585182903644913,0.8278633575532343,0.48484936558409175
6557,3.792,-0.9999881868611759,-0.00047798734078516173,0.0008916142514612799,-0.004754228667896197,-0.0011227068116279504,-0.16940658498387928,9.755488197312147,0.00212678552512365,-0.00014031610670403962,-0.0021027499841708183,-0.34898456022085933,0.8265078034712657,0.49022742682080467
6558,3.800,-0.9999881942916065,-0.0004753127324209983,0.0008860984321057495,-0.004753965164809808,0.01953260984541946,-0.18912244553532198,9.749605768291607,0.0009952375111061762,0.002161040538599574,-0.0012664661403327428,-0.35655207214679857,0.8326199704148355,0.4906089549292993
