packet_counter,timestamp_s,q_w,q_x,q_y,q_z,acc_x,acc_y,acc_z,gyr_x,gyr_y,gyr_z,mag_x,mag_y,mag_z
26577,0.000,0.9979803013011593,0.006425574735217819,0.0018191433419844749,-0.06317215305552763,0.019602570930714026,0.0372897176042877,9.760650055743076,0.012403109319451704,0.0009153019120290357,-0.007663960708617381,2.0881968342230417,-0.5814182157053326,-1.2031790514116663
26578,0.008,0.9979805890812519,0.00642120895823511,0.0018180218972366695,-0.06316808283408928,-0.010502964613795756,0.02858496109055007,9.703234665418103,0.009224239566143554,0.00018608099434288568,-0.007514957673057829,2.087705200133976,-0.5784840244293046,-1.202722188758333
26579,0.017,0.9979805708104432,0.006423458142390837,0.001826642740832174,-0.06316789411285507,-0.003583263963424838,0.040327166582686653,9.742569528935796,0.010692951639003898,0.0027227968169217646,-0.00845167180707789,2.087940292590265,-0.5801813422330847,-1.2014835636463148
26580,0.025,0.9979808605772735,0.006420922105464514,0.0018124268044273258,-0.06316398332783396,0.010887602225354643,0.013255630009088522,9.769559340098144,0.009860959065871417,-0.0029226975881811246,-0.007566212160009415,2.089422994106984,-0.579472132461534,-1.203921040047162
26581,0.033,0.9979812058930262,0.006432723265814119,0.001831325475157483,-0.06315678112990904,-0.03412500049312005,0.08226936628074813,9.736826776427591,0.012833560977085068,0.0053240728773023376,-0.00676884094232422,2.0852115971794203,-0.5857406937038013,-1.1955909303576648
26582,0.042,0.9979810055809293,0.006432200206957766,0.0018221181692229655,-0.06316026587620188,-0.026845932718103534,0.04435532389676179,9.724482738088998,0.010257839891213401,-0.0016872493494303152,-0.0093431637443798,2.0874506294937114,-0.5745640430303292,-1.2012963204123803
26583,0.050,0.9979817852403685,0.006423793318309638,0.0018286743795978507,-0.0631486116859593,-0.01128070806604244,0.08261696569590607,9.754887137752032,0.008185931534402299,0.0020577603854912948,-0.005682700954803091,2.0882539247143455,-0.5817365184237978,-1.2109886727181058
26584,0.058,0.99798109474037,0.006425281899568675,0.0018244749659402312,-0.06315949322487038,0.011665843299288381,0.08205193206974291,9.772956125428257,0.010654364602136852,-0.0004519053001845546,-0.01112031954823555,2.091646563475069,-0.5853660120156868,-1.2075111959989764
26585,0.067,0.997980895588843,0.006422735126679188,0.0018279518101048924,-0.06316279842885011,-0.003957508741136007,0.045355052736741064,9.742547274127638,0.009617960710644762,0.0014205834469532767,-0.009289999777440699,2.092054659900479,-0.5833086691263737,-1.1965406299671688
26586,0.075,0.9979808775636972,0.006426983861055532,0.001823885837657317,-0.06316276859111045,-0.004002865384944337,0.046204965544672315,9.74254326282737,0.01132628975508589,-0.00038679901596151245,-0.008499966996612316,2.082844340044646,-0.572652728425754,-1.2057429880332546
26587,0.083,0.9979803153319413,0.006414876084361799,0.0018170785881104024,-0.06317307812815631,-0.003942951514054022,0.046967872945193674,9.742539637217257,0.0074753049677186885,-0.0011823731384456996,-0.010970642424684833,2.089871390960971,-0.5882098048297338,-1.1984633199987693
26588,0.092,0.997980604349586,0.006410492418727994,0.0018159591607919356,-0.06316898939599563,0.019112006340589998,0.04632832429581854,9.760612310382943,0.00921882966507308,0.0001846534643280138,-0.0075104873545720294,2.0898847981941406,-0.5750430306361137,-1.2002973454455248
26589,0.100,0.9979805894704765,0.006414549070050206,0.001811481506024539,-0.06316894122226725,-0.012436673587528667,0.021916709437800094,9.751470905493775,0.01132436038907555,-0.0003870661082165699,-0.00849846552467561,2.090832526722087,-0.5786678884094397,-1.1963494694072168
26590,0.108,0.9979800246532479,0.006402618461268495,0.001805083952015014,-0.06317925721207052,0.003614078387739342,0.010389702643286872,9.73021770371796,0.0074735922306044525,-0.0011833213091612697,-0.010969137679046276,2.084759495557879,-0.5789514224886815,-1.200541861430151
26591,0.117,0.9979805553167418,0.006420999603454451,0.0018160337500774883,-0.06316869474035022,0.02653703432093841,0.009974933511835057,9.748293085317558,0.014534233951559882,0.0035173879811859154,-0.005975593517146342,2.0876161222630962,-0.5761709623721283,-1.1905368944566816
26592,0.125,0.9979798680241873,0.006424303909598333,0.0017987356097259948,-0.06317971104642342,0.019077094787005457,0.049879021412027595,9.760594881151102,0.011287450305505008,-0.00356242654760564,-0.011165822589413036,2.0881326053023126,-0.5810906413497411,-1.194392937711003
26593,0.133,0.9979805258554091,0.006431114351726221,0.0017943940454218043,-0.0631687496438424,0.0036762120289562847,0.013273535115299023,9.730214176239452,0.011995292901632586,-0.00032107225803978647,-0.005877493816414273,2.0864738558690146,-0.5779818577307045,-1.2012710093006627
26594,0.142,0.9979806339415261,0.006421938275026036,0.0017881287576810541,-0.06316815322618932,0.019286954839032207,0.05164750390213791,9.76058526908399,0.008145044724494982,-0.0011182184991876984,-0.008348325446642688,2.0904081146688918,-0.5843663144370498,-1.2050881598417813
26595,0.150,0.9979806198508939,0.006425977524082575,0.0017836479676100162,-0.06316809174586327,0.012317923076262864,0.04144072764636601,9.721258604684502,0.011320235909836858,-0.00038812845057776857,-0.008495263079929106,2.0835622621619527,-0.5755637406089662,-1.2037568350132353
26596,0.158,0.9979807280780145,0.006416797524230245,0.0017773807295578298,-0.06316749173547759,-0.003617281445949218,0.05452470565592963,9.742500402264785,0.008144014138047672,-0.0011186251213636908,-0.008347449908612406,2.084552990707506,-0.5768029319904957,-1.2056910918137622
26597,0.167,0.9979807142546966,0.006420831293776888,0.0017728992721214136,-0.06316742617325369,-0.01955398361709195,0.06760983705015106,9.763740345822761,0.011318931455560002,-0.00038838737809729254,-0.008494291298925111,2.0828512073683907,-0.5765680740061664,-1.2066823948698888
26598,0.175,0.9979795334603515,0.006422447551062538,0.001786787873353865,-0.06318552326925103,-0.018208357493743593,0.08404107495624698,9.715454447137237,0.01040079311708302,0.003886836215206934,-0.01284093807385132,2.0812983131210903,-0.5857314220666751,-1.1946429929681344
26599,0.183,0.9979797037593557,0.006433091292066566,0.001774356993207408,-0.06318210093117856,-0.03382274315140888,0.047411590419874736,9.68508996826774,0.013026919387905248,-0.002194658930860251,-0.007701974942067106,2.0896114834427424,-0.5840387400814584,-1.1963074002044982
26600,0.192,0.9979801191881286,0.006415283401611949,0.0017710378931241528,-0.06317744272212433,-0.04268965222718923,0.07149529645679945,9.74564504990396,0.006036828304137845,-0.0005479490477864283,-0.007358239400137783,2.091635838886825,-0.5855962341814529,-1.2060441395602917
26601,0.200,0.9979804125149768,0.006410683580242564,0.001769500804695671,-0.06317331904668057,-0.012173934930051464,0.03197865270202111,9.751443430122755,0.009211345470616594,0.00018266253643786477,-0.00750496560364839,2.0850070802656635,-0.5806649656574324,-1.201012098008024
26602,0.208,0.9979805212926857,0.006401495620758829,0.001763236379482058,-0.06317270749039365,-0.02064861380200603,0.006122660663741963,9.760409430225291,0.008141057756351539,-0.0011197847927760852,-0.008344658085613845,2.087211561164189,-0.5787212003229155,-1.2019910709909025
26603,0.217,0.9979803264651136,0.00640073942013358,0.0017536069546917055,-0.0631761298760018,-0.004535486322593374,-0.0054295931999979695,9.739170593201449,0.010245394635173528,-0.001691454453881734,-0.009331183732635662,2.094790019305808,-0.5845942186935342,-1.203344855924261
26604,0.225,0.9979807414977419,0.006382923530128474,0.001750289504158268,-0.06317146803326727,0.018576329969367186,-0.006035808768981072,9.757247382043513,0.006035246355518026,-0.0005486063479475099,-0.0073570090118656555,2.0920087345441516,-0.5764127740843021,-1.1902583291304967
26605,0.233,0.9979807269808014,0.006385093481830429,0.0017588999963525647,-0.06317123892170329,0.0354983929029481,0.04776491849878068,9.739299791432211,0.010674090183434357,0.0027189248685130524,-0.008441811609078765,2.0815657318390572,-0.5845409067800583,-1.1978263977983146
26606,0.242,0.9979799173454758,0.006401758368140615,0.0017437995130130612,-0.06318276052984458,0.026996362266232716,0.022227646072943936,9.748271586048894,0.01445293127720153,-0.002834965356444878,-0.011302735361587277,2.088437907433287,-0.5740896912431078,-1.202758555947241
26607,0.250,0.9979806995163365,0.006393296593392112,0.001750353322562346,-0.0631710805258164,0.035527253958127676,0.04970818206898428,9.73928996045111,0.008172966153109563,0.0020560659113280605,-0.005676211125999767,2.0930758284357234,-0.5831224872369573,-1.2026388865272426
26608,0.258,0.9979806846218408,0.006397486424778748,0.0017462873228547362,-0.06317100418509662,0.012435986909251797,0.05175483217194624,9.721209014714255,0.011311977360647724,-0.00038977173408765055,-0.008488529569255932,2.0893857545699683,-0.5760056416662458,-1.1988269048403786
26609,0.267,0.9979803067452298,0.006390098410933828,0.0017445991237286802,-0.06317776796385072,0.01945943894195423,0.06361132627167168,9.760514288639481,0.008532285006196865,0.00011252473186938603,-0.01011965884370491,2.0803492913648354,-0.5750244873618614,-1.1984139634810171
26610,0.275,0.9979801101422291,0.0063895118866486,0.0017353853144870025,-0.06318118656819745,0.011023449488220798,0.03781712231120267,9.769494987009868,0.010241315309099728,-0.001692841057966648,-0.009327169958633618,2.080844664109664,-0.5755220182418983,-1.1993822508049554
26611,0.283,0.9979800984261187,0.006393507759916656,0.001730899519268876,-0.06318109045254537,-0.0364150321783109,0.025683461102602858,9.781633262173893,0.011309925678476669,-0.00039009762027246176,-0.008486969151267369,2.090386970486295,-0.5804324255823848,-1.2021957682167
26612,0.292,0.9979792878322645,0.006408308255912282,0.0017288883959555817,-0.06319244882118331,-0.0034235579833677724,0.06751760416663181,9.742419095710025,0.013807585760490551,0.00027173387070779354,-0.011250533137723461,2.081831569278928,-0.5804185181266953,-1.2007934936981308
26613,0.300,0.9979798906199924,0.0063969063337599484,0.0017171983456871099,-0.0631844026426382,-0.019351871650277568,0.08069709724593387,9.76364135135492,0.007741062096622787,-0.002355550930717415,-0.006561217700777508,2.0823476287155174,-0.591441437640693,-1.2045915907687184
26614,0.308,0.9979796927465006,0.006394465796034027,0.0017210776061217805,-0.06318766940359066,-0.03481913320578536,0.04377114326385802,9.733326461884225,0.009598052616596969,0.0014142313553480068,-0.009277824167172509,2.092305079750134,-0.5698884936741717,-1.1973986961792566
26615,0.317,0.9979804757350875,0.00638598583969508,0.0017276303957617898,-0.06317598063852717,-0.011940989729260826,0.04325826340061258,9.751400203952006,0.008168668723320614,0.00205546219430426,-0.005674021933643176,2.0908895833251795,-0.5794744503708157,-1.2041544550189578
26616,0.325,0.9979812576941431,0.006379540371208988,0.0017215163023442351,-0.06316444520052768,0.012510778421764419,0.05819893225900528,9.72117247361599,0.008809123429515538,-0.0010526108773342177,-0.005720555250339863,2.088644497004186,-0.5750175336340165,-1.1976209148003765
26617,0.333,0.9979807570174747,0.006385520129427591,0.0017220254628312619,-0.06317173722330896,-0.011978206946601138,0.04478002509725987,9.751393290740497,0.011700089395024975,0.0008420902088758427,-0.010262087964696714,2.082380886902973,-0.5751264753702497,-1.2091411023151304
26618,0.342,0.9979810494870235,0.006381071699759747,0.0017209062466933894,-0.06316759668083544,0.012469590885887913,0.05987804909071296,9.721162329113664,0.009201969551361,0.0001802746041714858,-0.007497911677899399,2.087726174875523,-0.5848592094985235,-1.205591401909921
26619,0.350,0.9979805491263467,0.006387045045019501,0.0017214139714114487,-0.06317488389390329,0.0039451147585925885,0.03416783704713131,9.730163133693187,0.0116985727517942,0.00084163460396158,-0.010260925726750905,2.0909430198812453,-0.5810087653779947,-1.211464240891539
26620,0.358,0.9979812712152633,0.006360590919683149,0.0017210337580747439,-0.06316615572855465,-0.013575394509533413,0.03164566593958003,9.799689449087532,0.003925251828376347,1.9344589919723117e-05,-0.006366005425733049,2.0896442333070473,-0.5750476664546769,-1.20078737633043
26621,0.367,0.9979796699247173,0.006385788105330553,0.0017206474209047289,-0.06318891912099596,-0.013082901455460047,-0.017493600029265147,9.748177763287375,0.016297324305960585,0.0009313555272950941,-0.014008127388255506,2.084775828129769,-0.5750662097289293,-1.2027760548747437
26622,0.375,0.997981425648674,0.006369790179584136,0.0017438243934310264,-0.06316216359334849,0.018139028491832094,0.008762696498334607,9.757246137868979,0.00609567071499591,0.005805190655523452,-0.002023726399996864,2.081327527658892,-0.5762474533784196,-1.198639358591653
26623,0.383,0.9979812340270958,0.006368986906157193,0.0017341812783703955,-0.06316553768344066,0.026443495398432076,0.03598462188560587,9.74823202306053,0.010234277399595728,-0.0016955847024650995,-0.009319591584650039,2.0891489622268486,-0.5730853578459073,-1.1998329960905876
26624,0.392,0.99798152712915,0.006364524825353253,0.0017330647433849735,-0.06316138709142108,0.026502527283262294,0.036775810668871756,9.748228909399089,0.009198968657274001,0.00017947622371603008,-0.007495225270165599,2.0918732751059363,-0.5792395923864865,-1.2051261265093576
26625,0.400,0.9979823713052526,0.006376027293397117,0.0017338840459933602,-0.06314686441949446,-0.004118205919390562,0.07775175312339105,9.742342525216266,0.013045349437815495,0.000983092211636236,-0.0050230194899209,2.0794042679022438,-0.5838548761013234,-1.2027318755016205
26626,0.408,0.9979821751744764,0.006373559113885077,0.0017377570365996484,-0.06315010671981966,0.01179990557741673,0.06635642691460097,9.721121102653404,0.009590876640356556,0.0014113786890290235,-0.009272530552633912,2.0828025485348234,-0.5833411198563154,-1.2000261714830978
26627,0.417,0.9979819842124122,0.0063727463158566285,0.0017281103913017648,-0.0631534712135903,0.010341495598045633,0.05172336509040363,9.769432004944404,0.010232014948338891,-0.0016966102409060886,-0.009317264899675999,2.0859446094726217,-0.5769520273314072,-1.1956690187988608
26628,0.425,0.9979811772574972,0.006387499627423354,0.001726097745695724,-0.06316478666806753,-0.012626298751830049,0.053893658196568744,9.751346364371027,0.01379501852175271,0.0002680495999221689,-0.011240110810677788,2.0930544131474456,-0.5830946723255787,-1.1997094093445717
26629,0.433,0.9979817817100395,0.006376073693775625,0.0017144002351963318,-0.06315670899390428,-0.012545422451485896,0.05476751327647563,9.751341596460891,0.007735334160095269,-0.0023577961532048417,-0.006553676100512707,2.0900945164330214,-0.5823228790034259,-1.195587686464689
26630,0.442,0.9979806063362442,0.006377581581042654,0.0017282649171849816,-0.06317474915103347,0.0019515039107239412,0.027761588177233586,9.778448023296745,0.010372862178556755,0.0038746724008294937,-0.012827126516996837,2.092072675415096,-0.5808905520046352,-1.1990050394262213
26631,0.450,0.9979813930332043,0.006370920028313833,0.0017217221105753073,-0.06316317131424157,-0.021187190267321833,0.029724593400975368,9.7603649345451,0.008802686884594959,-0.001053618980321725,-0.005713877682644303,2.081862178709669,-0.5765518486411956,-1.2049806719311706
26632,0.458,0.9979813792656685,0.006373200190404385,0.001730748083611888,-0.06316291213519758,-0.005230748362371386,0.018197176370957975,9.739154758183373,0.010654744514124655,0.0027145040475430953,-0.008431037794181058,2.0828221792157446,-0.5833666168584126,-1.2027115255672127
26633,0.467,0.9979813711505606,0.006377139242526674,0.0017262529362820106,-0.06316276579068349,-0.021353086103460657,0.03140585411339813,9.760359309422325,0.011296426002848194,-0.0003933967453802308,-0.008474845181161605,2.0887426673529,-0.5749008890230468,-1.2110500030683005
26634,0.475,0.9979815422184093,0.006386034480015987,0.001727343353984375,-0.063159134255648,0.0016452031471362533,0.03119447169190878,9.778437731752328,0.012363572511315634,0.000910902052732333,-0.007635556125809838,2.0903838757065234,-0.5735921603630706,-1.2017724217453696
26635,0.483,0.9979811680655798,0.0063785811037012,0.0017256271925334677,-0.063165845995737,-0.028998936749196444,0.07208901039943909,9.7725155859876,0.008516991194509266,0.00010466883072230725,-0.010107053676215554,2.0809015343276016,-0.5790140060392837,-1.2071617400958536
26636,0.492,0.9979809729044244,0.006376084848689904,0.0017295039612950586,-0.06316907533587435,0.0029932480814634163,0.04818320714842515,9.730104162257152,0.009584107197946924,0.0014091393674054878,-0.009267928600862905,2.091078377654829,-0.5796467248045427,-1.1965825364285823
26637,0.500,0.9979809654467754,0.006380013061277623,0.0017250072100918692,-0.06316891948882873,-0.013082336598833599,0.061350778849564074,9.751301696066077,0.011293858438812173,-0.00039397194213734417,-0.008472545348185829,2.0888830400664524,-0.5784283946065473,-1.1968543109540246
26638,0.508,0.997980773468674,0.006379371874532713,0.0017158006487750228,-0.06317226788304847,-0.019992032324189103,0.051061582519085796,9.712013339867076,0.010225565559771355,-0.001698959234172751,-0.009310550450227464,2.0840200056553493,-0.5782097619871891,-1.1995776766413553
26639,0.517,0.9979805816560982,0.006376673182603901,0.0017192381783614197,-0.06317547701889503,0.003037567788710758,0.050705801478667045,9.730091329695659,0.009582007491028988,0.0014084713526147199,-0.009266622602860718,2.090887544556248,-0.583134076783365,-1.203875564210162
26640,0.525,0.9979807538611499,0.006385555434232787,0.0017203310895143212,-0.06317182968278083,0.011379818438214602,0.07814971997300471,9.721033950109543,0.012359314791001217,0.000910554219676024,-0.007632447537180389,2.0877104184032054,-0.5804440151287925,-1.203436015275206
26641,0.533,0.9979807441422797,0.006387615996367458,0.0017289246275242497,-0.06317154029099997,0.025811102195027975,0.05137928128749439,9.748164734488933,0.010648097963537762,0.0027129297488757715,-0.008427204079537128,2.090648064091878,-0.5675144168287829,-1.2045139373254248
26642,0.542,0.9979806726307694,0.0063717273318931395,0.0017305799728446567,-0.06317422923315354,0.0026483787137051057,0.053220330748134606,9.730078013209962,0.006411158984377832,0.0006740113290061693,-0.009120827360902287,2.084752153799193,-0.58187170630902,-1.1995375548677354
26643,0.550,0.9979809711208705,0.006367031359152315,0.0017290252175986484,-0.06317002979351385,0.04166841339507452,0.04038494726205541,9.726962984500547,0.009188575630062373,0.00017661059283544196,-0.0074866099737853865,2.0920573086571936,-0.5708603763414302,-1.196902963280541
26644,0.558,0.9979807802202232,0.006366379722474463,0.0017198140433284886,-0.06317336274032645,0.017257047533510064,0.02694598643328344,9.757214465846083,0.010222362613800665,-0.0017001076008811605,-0.009307006581495057,2.084068156165765,-0.578760604780702,-1.206164364607666
26645,0.567,0.997980407262933,0.006358901081434071,0.0017180884529068466,-0.0631800543559058,0.01731980834478181,0.02770899518144999,9.757212216663135,0.00851106637509626,0.00010195148685095671,-0.010102186725823536,2.088678065661859,-0.579944166339474,-1.202212896725952
26646,0.575,0.9979802140001444,0.006356384363108828,0.0017219474947354943,-0.06318325520959356,-0.00576557569141637,0.029579717803065512,9.739126536055748,0.009577567530999634,0.001407122729879932,-0.009263482266334569,2.090652960423111,-0.5741128703359233,-1.2051837247426604
26647,0.583,0.9979800262441357,0.006355522935251472,0.0017122881741522722,-0.06318656989568557,0.0318614357594457,0.0015677944431865525,9.784358643805982,0.010220615063386672,-0.0017005398707276604,-0.009305275327827317,2.084319005094371,-0.584873116954213,-1.2070811261303631
26648,0.592,0.997981176235938,0.006358554668333068,0.0017164943636271566,-0.06316798483697271,0.0012289549821423173,0.04244007155320575,9.778395450578794,0.010929293146890858,0.0015564024952666108,-0.004030213661981625,2.084048457708423,-0.5797116262644264,-1.2034697391341538
26649,0.600,0.9979819649093404,0.0063518608053472906,0.0017099494165277594,-0.06315637460300166,-0.014197281472662242,0.005487955550557898,9.748190350492461,0.008794982676501997,-0.0010548024459802324,-0.0057060619378822754,2.08847699935408,-0.5765819814618559,-1.2081060856419776
26650,0.608,0.9979811592656856,0.006364681594630539,0.0017210192691950177,-0.0631675127861842,0.0011093431714941056,0.04413726767936255,9.778387953202115,0.013133303924742788,0.0033707889291688933,-0.011183781725486158,2.0833111590717706,-0.573113172757286,-1.2028053057802983
26651,0.617,0.9979812768629882,0.006355204978418812,0.001714299978249057,-0.0631667917199183,-0.030427294896463623,0.019569326689824144,9.76937563154337,0.008117485863819981,-0.001130274496403509,-0.008321192070522827,2.084993978026386,-0.5894374066648558,-1.1992197938135565
26652,0.625,0.9979815738217435,0.0063506910158454884,0.0017131884603458025,-0.06316258402881418,0.002491269784907645,0.06104613990898863,9.730032104082493,0.009183755966208526,0.0001753322102084244,-0.007482837016768257,2.090137092848002,-0.5860404531480142,-1.2014118731197907
26653,0.633,0.997979977079328,0.006373891903377207,0.0017258628911702549,-0.0631851267944399,0.0023153267532196094,0.062051995191618865,9.730025789793334,0.015621189152250598,0.004029018534399226,-0.013941632858976911,2.090124600596506,-0.5860242277830433,-1.1997030114298994
26654,0.642,0.9979794210356825,0.006361831536642131,0.0017194135131259377,-0.06319529971409951,0.025216032478630142,0.06187937521339979,9.7481052924908,0.007439148093764922,-0.0012067086888819703,-0.010935449736420997,2.0864451665984696,-0.5798978081538428,-1.1973464969449736
26655,0.650,0.9979805745491872,0.0063646493471210975,0.0017231928593173349,-0.06317669402186726,-0.005460563040040461,0.10261574210701234,9.74211169808746,0.010925301173737157,0.0015569229338518958,-0.00402750571658891,2.090192568173,-0.5839151417426439,-1.209000549801168
26656,0.658,0.9979808717450421,0.0063601232082555435,0.0017220722688711556,-0.0631724855525138,0.009075336740232164,0.07577768693971498,9.769276294583465,0.00918153619644774,0.00017471064860594856,-0.007480844756912393,2.0835483072410965,-0.5709067345270613,-1.2018478893244253
26657,0.667,0.9979805005122918,0.00635261484760316,0.0017203340077174025,-0.06317915267504101,-0.0139629998874266,0.07759754750183799,9.751184720746476,0.008504129889421045,9.838159690543103e-05,-0.010096277119624797,2.0906447714591714,-0.5892396352290312,-1.2040635258127776
26658,0.675,0.9979806753841232,0.006361452275846765,0.0017214354045241777,-0.06317547107018706,0.016656517899992042,0.03846226611766467,9.757176910574179,0.012347209656280049,0.000909397776452968,-0.00762322349343429,2.083275178874854,-0.5772170181363966,-1.1978834404042413
26659,0.683,0.9979803008213972,0.006352075394158906,0.0017327865443677601,-0.06318202087154623,-0.0065350423529975206,0.040377742197968386,9.739087267615437,0.007858148136013569,0.0032050693416808755,-0.010054761719287732,2.0823482556474047,-0.5824086416468435,-1.204677351120644
26660,0.692,0.9979804169139914,0.006342785878640317,0.0017265048953901295,-0.06318129236031877,-0.008057335031975662,0.02571894687408623,9.787443320604412,0.008113320247250066,-0.0011320387276848168,-0.008316695461824402,2.079654603031373,-0.5716553487563983,-1.2035783524769619
26661,0.700,0.9979804097256313,0.006344788029687692,0.0017350912740048364,-0.06318096965851946,-0.01652455731878065,-6.827091754817669e-05,9.79653865546481,0.01063416609958371,0.002710173128112394,-0.008419032165215595,2.0835635723343673,-0.5824016879189988,-1.2039360583860097
26662,0.708,0.9979805852869816,0.006353613818931886,0.0017361934840848805,-0.06317727925354008,0.01618220393975331,0.0416341151232531,9.757164689931255,0.012344651361089316,0.0009091844671623505,-0.007621011987705852,2.092279502203466,-0.5784005796951686,-1.1938998481422471
26663,0.717,0.9979813760124633,0.006346895501762268,0.00172964708693146,-0.06316564232805441,0.00778789271789082,0.015943647200728342,9.766263157860983,0.008789090970882273,-0.0010556647904824475,-0.005699648772300748,2.0832821478632293,-0.5796675859880768,-1.1988367543249716
26664,0.725,0.997982345423863,0.006345140803828679,0.0017287218772423054,-0.06315052597671716,0.0008554965221509575,0.005442757616228394,9.727002150353554,0.009854650812324233,0.00025078136803964764,-0.00486181026830375,2.08770883712511,-0.5775121417620462,-1.2032197063448422
26665,0.733,0.9979821530283773,0.006340507117736247,0.0017452312202482357,-0.06315357768426444,0.007625201416689659,0.01746712254094622,9.766260680920816,0.008920437167947666,0.004509816119573903,-0.009215329027040066,2.0920891604839307,-0.5748081726517845,-1.2012600934969577
26666,0.742,0.9979814761105115,0.006341777309068793,0.0017409831384306116,-0.06316426346090499,0.0012252801589888672,0.07243407356931025,9.729954234382104,0.010599206072893242,-0.00047551935023308395,-0.011071937435572147,2.083786630029997,-0.5774912805785122,-1.201051153462532
26667,0.750,0.9979812879631066,0.006339004020558765,0.0017444003738004326,-0.06316742016943595,0.038832074107312424,0.044564507118362275,9.77523630585737,0.0095644368236558,0.0014022914677252892,-0.009253922701569611,2.095034051742984,-0.5860589964222666,-1.2033291641523716
26668,0.758,0.9979813426933108,0.006361179134862771,0.001747725436832396,-0.06316423427754285,0.024073447158052878,0.07320302364170417,9.74802972851941,0.015506037955602315,0.0016441653758913382,-0.007760284613382118,2.083570693819688,-0.5826550891775804,-1.204910232932884
26669,0.767,0.9979815852946713,0.006338309372777032,0.00173876935287397,-0.0631629474309705,-0.008759770199961697,0.03327803949384746,9.787419933553075,0.00494409641508719,-0.0018698253476550435,-0.008169865162194173,2.0908645479898733,-0.58017438850524,-1.200729778097127
26670,0.775,0.9979807913930462,0.0063548012046824144,0.0017236487995949902,-0.06317424749828375,-0.030164193360890667,0.05039129953704632,9.720956602884728,0.014407170804170786,-0.002848063851979554,-0.01125076387874147,2.08698178864176,-0.5775190954898909,-1.20395742970389
26671,0.783,0.9979815830104741,0.006348068013435529,0.001717101059718801,-0.0631625962762454,-3.014286367347414e-05,0.06156071021816727,9.77829384462164,0.008785566930312566,-0.0010562659967137992,-0.005696172882058705,2.088216244630597,-0.5846173977863497,-1.2058342734802396
26672,0.792,0.9979809032653169,0.006347458268566053,0.0017259360527071763,-0.06317315597636063,0.015966001533665647,0.04998068250350964,9.757125859696865,0.009948838987328396,0.0026297213118682042,-0.011029857137392766,2.091322477868425,-0.5801349840474536,-1.1965761160460902
26673,0.800,0.997981513380049,0.006335964735405856,0.0017142207004636585,-0.06316498990682669,-0.03151498776138577,0.03754433566228949,9.769319640401111,0.0077193958636132196,-0.002363548098443354,-0.006532464551869548,2.0858060213664267,-0.5734268396571883,-1.210108834011693
26674,0.808,0.9979810188067296,0.006341969056428248,0.0017151435244644492,-0.06317217593735718,0.016010297863548607,0.05148907632199918,9.757117944659935,0.011658824059079054,0.0008294512868473903,-0.01023026441532458,2.082858210244976,-0.5785303826149357,-1.2076403444853177
26675,0.817,0.9979810175580127,0.006345798748748069,0.0017106322798918136,-0.06317193339860061,-0.037746554216403064,0.0934014012232195,9.732965822014448,0.011270455468115306,-0.0003992522636394231,-0.008451630728563806,2.0853317928041943,-0.5768631976318161,-1.2120329383128359
26676,0.825,0.9979814393170907,0.006327876269103582,0.001707262270643544,-0.06316715931598113,0.009070486916766896,0.04182031152901874,9.71786072299898,0.006006675799966567,-0.0005643427843710785,-0.007330105832402059,2.0835279310195527,-0.5816229408690013,-1.1990605499569396
26677,0.833,0.9979814342435663,0.006329831048776189,0.0017158413292797958,-0.06316681116363328,-0.02525122050786672,-0.013495709982409917,9.805662092593435,0.010622936037396325,0.002707571812158842,-0.008412831185218963,2.0835828810772923,-0.5870656477287484,-1.2065773733704872
26678,0.842,0.9979812455564331,0.006327246810650501,0.0017197118641185838,-0.06316994583290537,-0.023328967508610996,0.06800509584028154,9.760168399075477,0.00955718525570284,0.001399863353320217,-0.009249249792313476,2.091800377310001,-0.5752384841626562,-1.195154165026155
26679,0.850,0.9979804519128559,0.006341633629197832,0.0017172350023585616,-0.06318110783036517,-0.014945575488290846,-0.020156192530171417,9.696879116866144,0.013753986995386146,0.0002572296381043205,-0.011206072166363455,2.0933342902286975,-0.5824086416468435,-1.2045970401699444
26680,0.858,0.9979805697640789,0.006332304016837139,0.0017109719339067546,-0.06318035196360651,-0.0010097167360393758,0.0033680645382447084,9.775370482761428,0.008103767284538257,-0.0011363722937781627,-0.008307074072073399,2.0872097765568323,-0.578718882413634,-1.2017469478923466
26681,0.867,0.9979803834894028,0.006329491219969509,0.0017143793972343167,-0.06318348371626129,0.015707131185658103,0.05718265227327114,9.75708672950172,0.00955506587400305,0.0013992331410505774,-0.009247849957983154,2.0845170782870097,-0.5799302588837846,-1.2007784978271028
26682,0.875,0.9979806840526297,0.006324914012082743,0.0017132594601663444,-0.06317922492883489,-0.007382442186401334,0.05896554879278592,9.738991859795076,0.009167693012441708,0.00017114118602544348,-0.007469427920514551,2.090688144247089,-0.5814831171652162,-1.2099966512932985
26683,0.883,0.9979801946131869,0.006330691457162497,0.0017137229565147266,-0.06318636450317956,0.038616092817644394,0.05777510975597941,9.775168009737957,0.01165225473343224,0.0008276495286495367,-0.010225203479581899,2.0826189724744033,-0.5851288361220762,-1.2083119165903464
26684,0.892,0.9979812888742845,0.006315549559434244,0.0017105494999683367,-0.06317068078620842,0.03165285292707805,0.047188794170224056,9.735922333956978,0.006681709585625628,-0.0004857292535664129,-0.004712449913006243,2.0845314906987022,-0.577995765186394,-1.2027500253943448
26685,0.900,0.9979803057507965,0.006321415343917939,0.00172907844873924,-0.06318511952442057,0.015382521955358226,0.06027459596914375,9.757068637813529,0.01139022919519663,0.0051617933041046464,-0.011965362463050527,2.0879296018902305,-0.5799233051559399,-1.2000211429023286
26686,0.908,0.9979795146805484,0.006337860903413973,0.001713975637333323,-0.06319637714822808,0.02363712280945979,0.08787131068183995,9.747909606947626,0.01439566308278494,-0.0028509584275033485,-0.011237779627126196,2.0845152428473375,-0.5806603298388693,-1.200527421186499
26687,0.917,0.9979789657153094,0.006325523500561977,0.0017070350877768368,-0.06320646939558275,0.007090618471925274,0.035665913754133444,9.766211577342995,0.007422027396553216,-0.0012184867771771815,-0.010918058129967372,2.0847612632211314,-0.5791978700194184,-1.2007836666813576
26688,0.925,0.9979782877889485,0.0063248705701720274,0.0017158757287446093,-0.0632169983832879,0.008438506744185262,0.0515684302228504,9.717814454417411,0.009936356622256117,0.0026252905809198493,-0.011022481957160313,2.0893991164471477,-0.5892071844990895,-1.2006547258719615
26689,0.933,0.9979785922684656,0.006320070037070476,0.0017143034986353963,-0.06321271432309132,-0.0014340139802836553,0.010603801869606301,9.77536525921387,0.009163770665999257,0.00017037464194353052,-0.007466142209811918,2.09013372696255,-0.5831062618719863,-1.200951441090871
26690,0.942,0.997978405195353,0.0063174576013391315,0.0017181754588822624,-0.0632158237017313,-0.008437278261868866,7.226636695828828e-06,9.736128569595428,0.009549096080265163,0.0013975099279966378,-0.009243621184178477,2.0916016602413703,-0.5894582678483896,-1.20136871513014
26691,0.950,0.9979782248821992,0.0063164926517207684,0.0017084870711821024,-0.0632190292039027,-0.03224878331184888,0.05206058891509227,9.769250674530957,0.010196305136256856,-0.0017094227092326786,-0.00927900282947446,2.0898330954131175,-0.5742434224025823,-1.1932247291294515
26692,0.958,0.9979788341406742,0.00630518085049575,0.0016972421898523886,-0.06321084298293157,-0.0013216887420624737,0.012899352845814553,9.775362514884225,0.007712363097203603,-0.0023656610873463717,-0.00652336080812605,2.0874416895128247,-0.5747965831053766,-1.2000733870722515
26693,0.967,0.9979791995555306,0.006318468338452914,0.0017030738385970547,-0.06320358970706613,0.015364219957198336,0.06685102732914437,9.757025824896624,0.013387564565967167,0.002216022696006782,-0.006769273859027528,2.0844867230178434,-0.5801349840474535,-1.196626087304303
26694,0.975,0.9979790113752508,0.006315822690250716,0.0017069272317681411,-0.06320672145941632,-0.016147716690416144,0.04222032619494311,9.748097429407457,0.009546519928576257,0.0013965221233044188,-0.009241996612614956,2.0835249548485164,-0.5730737682994995,-1.1986534284170547
26695,0.983,0.9979798012269402,0.006307169340567555,0.0017134688412614525,-0.06319493636737614,0.008134037140225498,0.057126690553717094,9.71778362802204,0.008127166752179046,0.0020492925337808696,-0.005650493356181824,2.0840267713144636,-0.5835898852963339,-1.2005031763938936
26696,0.992,0.9979794369605381,0.006301650959180337,0.0016990505974658193,-0.06320162835072889,0.013702030013952045,0.05404129345002144,9.805414100873048,0.00912973614430488,-0.0030193542321925375,-0.010112444696238034,2.0867591714928615,-0.5760821326725374,-1.20690259865845
26697,1.000,0.9979789498005868,0.006307385172124249,0.0016995056640746458,-0.06320873616603,0.02294257061962987,0.031149575144747865,9.745043287872749,0.011641982955609918,0.0008249222405713014,-0.010217533720890747,2.088184494468492,-0.5792048237472631,-1.2014910503479188
26698,1.008,0.9979792519943376,0.006302768877825807,0.001698372644332613,-0.06320445572629112,-0.016212041366072464,0.045323023143328416,9.74808339039751,0.009159002851443693,0.00016910689259744607,-0.0074624076466841835,2.0909053228533923,-0.5841337743620022,-1.2063075238063237
26699,1.017,0.9979792498247162,0.006304657736290697,0.0017069439479913085,-0.06320407069551594,0.03804159654110099,0.07073711028600298,9.775085057097321,0.010607150520498527,0.0027045439328859198,-0.008403832492079027,2.095030956963213,-0.5792187312029524,-1.2029058176810412
26700,1.025,0.9979800425334256,0.0062980928981094175,0.001700858711695296,-0.06319237145789097,0.006620493846772805,0.045947424096737945,9.766168948101097,0.008773269221438356,-0.0010576900623918792,-0.005683632545690719,2.0947939104585176,-0.5799603917044448,-1.20387714122101
26701,1.033,0.9979800405776815,0.006299976416601576,0.0017094288420290546,-0.06319198334246229,0.01487723477354342,0.07328099272267893,9.756980403558314,0.010605910105569142,0.002704161085078597,-0.008403075034809885,2.084502682819422,-0.58162062295972,-1.1988092881072103
26702,1.042,0.9979802278930602,0.006310589052164568,0.001697466878516246,-0.06318828852348594,-0.0004012599409762972,0.03629254282230099,9.72693599856669,0.01296632815415048,-0.0022000287338630616,-0.007635167786015452,2.091635104813982,-0.5704578797419368,-1.2059437229973946
26703,1.050,0.9979790705611817,0.006313513721631743,0.0016977107911847304,-0.06320626586341638,-0.00866762462331153,0.010718122355777106,9.736122468446537,0.010958583732380438,0.0007402565306182927,-0.01282793707489262,2.093605362881902,-0.5800021140715129,-1.208280280433983
26704,1.058,0.9979786955196559,0.006304194711503147,0.0017094562451824664,-0.06321280073902462,-0.008828183221612199,0.011479396125878604,9.736121454984445,0.007827634597619133,0.0031914577804944676,-0.010039441474038973,2.0896190454747954,-0.5779447711821997,-1.197341838782455
26705,1.067,0.997979491432367,0.006297400868938977,0.001702907233422851,-0.06320108804162126,-0.010309046478586813,-0.0029769539573299515,9.78453634287392,0.00877112363226974,-0.0010579658984124665,-0.005681363789248158,2.091830783411482,-0.5743013701346212,-1.1993135290910026
26706,1.075,0.997978819874277,0.00629857299533884,0.001698687906411887,-0.06321168815942926,-0.010245898208499346,-0.0021890622558073396,9.784536618155524,0.010572231176585014,-0.0004865803314367134,-0.011048238438470645,2.090632889195458,-0.5804347434916663,-1.2024381066274625
26707,1.083,0.9979791264578619,0.00629373220403876,0.0016971084059237214,-0.06320737229473752,0.030278787480022665,0.0004315536699154037,9.733087323517456,0.009154229184539429,0.00016785045440338058,-0.007458434429501758,2.0854584478143625,-0.5723158824330364,-1.195960750372641
26708,1.092,0.9979789454028819,0.006292939914017349,0.0016878892037763876,-0.06321055663278691,0.0064552402867872755,0.05248935482130259,9.766136090227482,0.010186947073919319,-0.0017129331967601935,-0.009269262754144875,2.079162511451471,-0.5753126572596663,-1.2030589079451965
26709,1.100,0.997979313265364,0.006306178362700117,0.0016937244009348697,-0.06320327290974889,0.03776418424075819,0.07905723487264824,9.775022385175012,0.013375763307625977,0.0022159707233778765,-0.006761886783229074,2.091079891156505,-0.5835551166571106,-1.1967895739695487
26710,1.108,0.9979794982263517,0.006314895412138088,0.0016948339691615067,-0.06319945216242405,0.030711414097330334,0.06867086452696469,9.735797530706225,0.012311903243755947,0.0009059823018776937,-0.007596849831185746,2.0854725721762684,-0.5745315923003874,-1.1978928745349442
26711,1.117,0.9979793211166031,0.006313883248107539,0.0016851306368191685,-0.06320260941377705,-7.74869741979362e-05,0.10942309770685928,9.729608634255653,0.010185153290268008,-0.00171389470847064,-0.00926734794224168,2.0908594313852746,-0.5767496200770198,-1.2000298586643503
26712,1.125,0.9979787659971364,0.00629981485390668,0.0016917303696805791,-0.06321260159174406,0.02154290556059097,0.09408510377293942,9.796120908708957,0.006759248508064101,0.0018789724230437942,-0.01087232263974921,2.0908696984826824,-0.5831108976905495,-1.2014343332246027
26713,1.133,0.9979784072690017,0.006294050309609108,0.0016768469103462858,-0.06321923552184584,-0.016662161967229628,0.05766853040955938,9.74801741433585,0.009121146030337412,-0.003024037385657171,-0.010101669267887182,2.09356630484932,-0.5770215646098539,-1.202937386433945
26714,1.142,0.9979776133130346,0.006306665272535894,0.0016879098785471157,-0.06323021634789522,-0.0005756639950997634,0.04620094618963718,9.726893973741182,0.01307541039113482,0.003356665897669106,-0.01115061296087934,2.079705560271774,-0.583196660333967,-1.2105489835096643
26715,1.150,0.997977431500538,0.006303758299984922,0.001691294173129806,-0.0632332853084933,-0.025177064263834446,0.032943100899694926,9.757222821604707,0.009532753691339938,0.0013919476129563907,-0.009232607722511443,2.083020489625854,-0.5750059440876089,-1.1964413471268434
26716,1.158,0.9979776178950375,0.00631244968756627,0.0016923411916035544,-0.06322944836688014,-0.017461718252833287,-0.005081923286804786,9.745323296088408,0.01230763100739318,0.0009058495666011056,-0.007593653648715965,2.0808675420673017,-0.5801906138702109,-1.2025118119865446
26717,1.167,0.9979772546196009,0.006304790613640778,0.0016905426408947224,-0.06323599404470619,-0.048337536160528494,0.0355797337148678,9.739120409983821,0.008468853301643047,8.112484083232798e-05,-0.01006690269162156,2.0876960907120385,-0.5811578607189062,-1.2014760769447106
26718,1.175,0.9979774408479628,0.006313486559522919,0.0016916516380903503,-0.06323215764742673,0.005480816978867739,-0.004301686718892673,9.76342012151183,0.012306242948722542,0.0009057093892378381,-0.007592608999192064,2.087441757289244,-0.573820064619555,-1.2000826584616489
26719,1.183,0.9979772650341759,0.00631245459192352,0.0016819437610287565,-0.0632352943941607,-0.009217299784889055,0.024056018398017243,9.736098143922572,0.010180546183613946,-0.0017153518800006623,-0.009262405269949009,2.0862154279642513,-0.5782074440779076,-1.1993174913526596
26720,1.192,0.9979765895492727,0.0063116906784464345,0.00169078516999204,-0.0632457944680237,-0.025367490667156517,0.0372419536046941,9.757206867592263,0.009911891708267553,0.002615577350300512,-0.011008130400435585,2.093325350247809,-0.582641181721891,-1.2033741068298156
26721,1.200,0.9979764085553552,0.0063087668310285614,0.0016941651914954535,-0.06324885162855308,0.005314857539728586,-0.0017773545475457454,9.763420997450645,0.009528758352654333,0.0013906075500145537,-0.00922976129297846,2.0852567376305906,-0.578230623170723,-1.2017658610893918
26722,1.208,0.9979767152697541,0.006304117909679867,0.0016930558891996357,-0.06324450520424214,0.029650423790754665,0.013151396497284331,9.733080382462571,0.009145887803380144,0.00016575854350457447,-0.0074515249773288526,2.086247228958672,-0.5828876292526279,-1.2036676680270284
26723,1.217,0.9979765345110551,0.0063011890107903855,0.001696434655745696,-0.06324755878146371,0.021754389552555722,0.0528247972851055,9.74495262191987,0.009527565689277893,0.0013902196127851866,-0.009228891191226468,2.0912854416606703,-0.5737389377947006,-1.1915097950074989
26724,1.225,0.9979761626946768,0.006291849775077672,0.0017082414270077864,-0.06325403726912107,0.036304861091431495,0.026104576298183652,9.772283053686712,0.00781384640505893,0.0031854600335886976,-0.010032378520164836,2.0876571004558757,-0.5772007927714257,-1.1961424543340702
26725,1.233,0.9979755653112455,0.00631271183776004,0.0016978320262314617,-0.0632616635677919,0.029772077435863156,0.08101711078785205,9.73570553873659,0.015429670052163178,-0.0015471131418102152,-0.01037098682349038,2.0952268050017633,-0.5806209253810828,-1.1962988022481424
26726,1.242,0.9979753814434146,0.006310006171472117,0.0017017500450567248,-0.06326472873388243,0.03667484029903392,0.09352907125688938,9.774898773346106,0.009525470178356754,0.0013895495591986094,-0.009227342916312999,2.0806390797172876,-0.585826456347219,-1.2046573940723064
26727,1.250,0.9979761749148313,0.006301282419892889,0.001708288207509876,-0.06325290423077441,0.00660588732624258,0.08362393271178499,9.71759289445635,0.008110211415173721,0.0020469926492950015,-0.005640895286425068,2.085257912250164,-0.5870216074523987,-1.2019265416833718
26728,1.258,0.9979755129032616,0.0063024320771019335,0.001703941810955115,-0.06326335098373086,0.005164442764895699,0.06934403932403672,9.76603172587978,0.010557384848079748,-0.0004927846069334064,-0.011034572587357629,2.088150332767142,-0.5828227277927444,-1.1968179437651165
26729,1.267,0.9979758227335426,0.006297540607213549,0.001702354133280012,-0.06325899313152884,-0.017849030527775735,0.07101461577704107,9.747927222191052,0.009142191130587705,0.0001648775893945032,-0.007448291498536495,2.0942506244207433,-0.5754942033305196,-1.196354615793652
26730,1.275,0.997975154491298,0.006298650629130685,0.001698130936696364,-0.06326953745400962,-0.009987968759146003,0.032896455099365306,9.736071527327201,0.01055598313234365,-0.0004932867220431587,-0.01103341687517011,2.084326872120315,-0.5743848148687573,-1.2081572859606082
26731,1.283,0.9979754645706714,0.006293754424050737,0.001696542765683699,-0.06326517614649275,-0.027469626182104828,0.031047494715624863,9.805616262371325,0.009141070119942064,0.000164654646650132,-0.007447446724060128,2.0842621687646434,-0.5808928699139169,-1.1993062725341637
26732,1.292,0.9979766826612395,0.0062652133449911185,0.0016911098107372706,-0.06324893764972142,0.013086030650086488,0.033347455194598086,9.754165853658932,0.0035086982468506187,-0.001229078126357786,-0.004558222228787295,2.0969196822482,-0.5806000641975487,-1.1940892015465863
26733,1.300,0.9979751079705833,0.006289939089904363,0.0016906214885896178,-0.0632713389800677,-0.034313677123399854,0.020844039645430145,9.766416469344094,0.016185767982758417,0.0008997324476418933,-0.013920711775022758,2.0874712314649466,-0.5863100797715667,-1.204114540922283
26734,1.308,0.9979752900713689,0.0062967082057144045,0.001704876154595581,-0.06326741080554076,-0.0345154276129734,0.021973428321568744,9.766413279604693,0.011643403152772439,0.0040109986493219825,-0.007554764004637879,2.088886287343169,-0.583071493232763,-1.1972985180514992
26735,1.317,0.9979757268806163,0.00628037533948368,0.001687952445510304,-0.063262597632749,-0.003248629331917328,0.04840453452483692,9.775250732371912,0.0066352937081502255,-0.003682696442505654,-0.007337008383302357,2.091882215086825,-0.5790070523114389,-1.2063490598494864
26736,1.325,0.9979762161703307,0.006280431824901786,0.0016920209935469643,-0.06325476424270358,0.019860227709639435,0.04824294015455324,9.793346690190255,0.01019992144368701,0.0014756331043226114,-0.006610976544348193,2.094056018778188,-0.5819064749482433,-1.2031315832099276
26737,1.333,0.9979767085499637,0.006280264774575557,0.0016956174054891867,-0.06324691571734632,0.005951235553878803,0.026002663245428367,9.71495909229569,0.01019940358821446,0.0014754842025115956,-0.006610565835750233,2.0905689822127242,-0.5754687063284223,-1.1936960320264367
26738,1.342,0.9979770150500472,0.006275572876697518,0.0016945326666319882,-0.06324257407719273,0.028904882405583143,0.02594425066957165,9.73305693201685,0.009137605853380908,0.00016360476869175543,-0.007444579654820321,2.0857560184722335,-0.5738501974402154,-1.203268751557429
26739,1.350,0.9979773258550317,0.00627066006010165,0.001692940844058843,-0.0632381993177333,0.03714385697525015,0.05322535968111737,9.723786490254541,0.009137126015077908,0.00016346678969013546,-0.0074441990821764075,2.0925593792847184,-0.5777145490164337,-1.19878747896762
26740,1.358,0.9979767211903713,0.00628978281548352,0.0016960770375712057,-0.06324575809438625,0.03707018499187608,0.054196560911703294,9.72378141067707,0.014765955086762435,0.001556792270358035,-0.010331233873720693,2.0876555869542,-0.5732924009188579,-1.1959354167931038
26741,1.367,0.9979773338747114,0.006276288865068642,0.0016974244128716794,-0.06323739416491299,-0.003541605843682795,0.05331359871925605,9.775225089304284,0.007042136481079839,0.0007338800062139726,-0.0064712763243245175,2.087209454618836,-0.5833573452212863,-1.2017029087927091
26742,1.375,0.9979781315691405,0.006269655556458502,0.001691348448655787,-0.06322562510087477,0.05311703669469073,0.04333982229101355,9.702686440667723,0.00875541664057258,-0.0010601265314842186,-0.005665166949314325,2.0801421765266785,-0.5816646632360695,-1.2034797513600521
26743,1.383,0.9979779597607217,0.006268569550677215,0.0016816250358823942,-0.06322870396311188,0.02095952169405447,0.06887910951106371,9.744854113333917,0.010167796537306742,-0.0017200879307124166,-0.009248526760523,2.0864918544395255,-0.5758078702304216,-1.203733100912366
26744,1.392,0.9979774720769586,0.006272483048893865,0.0016955401993656246,-0.06323564126912373,-0.018291844542719916,0.0829477727765198,9.74783216396566,0.01095533578479473,0.003920671486178309,-0.010163407920820171,2.092295495893254,-0.5793979593645241,-1.196087684639853
26745,1.400,0.9979774823245593,0.006276132037321614,0.0016910050830817001,-0.06323523892255742,0.012473405134684678,0.04410395131765939,9.754123954271765,0.011227529490602439,-0.0004082711491211459,-0.008413075281501566,2.0835439416534456,-0.5823761909169017,-1.2012507043018947
26746,1.408,0.9979771211415857,0.006268650808953952,0.0016896773554494334,-0.06324171633837535,0.012483609507239632,0.044904745256457934,9.754120285953547,0.008452354811093948,7.284593725204358e-05,-0.010052909785963715,2.0911159560739465,-0.578230623170723,-1.2017230285823521
26747,1.417,0.9979770629135228,0.0062523443663751715,0.001690789411794894,-0.06324421965356301,-0.0036871428625916696,0.057894912192913865,9.77519897538321,0.00635839320264502,0.0006434601189240145,-0.009081131585422793,2.0827917900583692,-0.5840596012649923,-1.1985544793497143
26748,1.425,0.9979778559701084,0.006243821659786839,0.001697798615195744,-0.06323235852195319,0.0041013543752625135,0.019559316056913145,9.763402151890988,0.008099839799348873,0.002045496126920454,-0.005635123456559482,2.0915844919320077,-0.5796699038973583,-1.1990201980385546
26749,1.433,0.9979778601292325,0.006245563917429782,0.0017063503708860139,-0.06323189062208397,0.003907252720636898,0.020319143462359454,9.7634006811409,0.010572178066528852,0.002697215394443702,-0.008383611971047526,2.0977161779215088,-0.5828806755247834,-1.2028514184050745
26750,1.442,0.9979780567295609,0.006256077298645894,0.0016944386027943912,-0.06322806861627758,-0.004020983484297934,0.06020117542435693,9.775184916249978,0.012938677730873184,-0.00220199599152026,-0.007603785717898464,2.090843759633483,-0.5711137776000118,-1.1978860612663818
26751,1.450,0.9979769074783493,0.006258845566347553,0.00169462173110615,-0.06324592674090689,0.003944029183811797,0.02224684694513408,9.763396464221348,0.010921968864876102,0.000723142946890748,-0.012799126818787653,2.0794201260391914,-0.5868052927423221,-1.2049011692204314
26752,1.458,0.9979775179798414,0.006245551967809657,0.0016964021654852974,-0.06323755930700115,0.012112943013127344,0.04951363837185961,9.75409844598253,0.007037334019324602,0.000732437767391641,-0.006467739507848675,2.0889476417574935,-0.5733851172901201,-1.2056914172963733
26753,1.467,0.997977718024301,0.006255818683619219,0.001683969717912084,-0.06323371968812043,0.0052920748732733554,0.03873034835869371,9.714917071735739,0.012936811974113316,-0.0022021273225858815,-0.0076018855573004585,2.08447606620602,-0.5793886877273979,-1.195168302255016
26754,1.475,0.9979775363574473,0.006253016254378218,0.0016877986151301208,-0.0632367618516133,-0.010822015469357866,0.05203112025346118,9.735987179404006,0.00950816087689011,0.00138347278068616,-0.009215443392161125,2.094289174130174,-0.5857986414358403,-1.2016279743732097
26755,1.483,0.9979771779962192,0.006245265085445321,0.001685962280031049,-0.06324323200079421,0.012136227974159513,0.05196992703471557,9.754085639777214,0.008447300245807586,7.042050778019976e-05,-0.01004867777260219,2.0859369457759387,-0.5845107739593981,-1.1946206731368079
26756,1.492,0.9979771904720137,0.006249166991583205,0.0016819485985623244,-0.0632427565687167,0.003923673055767405,0.026235089335032918,9.763386570417774,0.011220934753637543,-0.0004095263089043473,-0.008407268355368723,2.0806268416273683,-0.5821482866604171,-1.2029833000926553
26757,1.500,0.9979778109209668,0.006237543834278453,0.0016702026569289066,-0.0632344240061976,0.01225580999466979,0.05353950983308822,9.754077001012408,0.007688995476744933,-0.0023739356498125304,-0.006492461843988557,2.0862590942782804,-0.5919366506114484,-1.2052907693649944
26758,1.508,0.9979780058077888,0.006246152815157713,0.001671274439706308,-0.06323047003357395,0.00409347728343402,0.027817191441624686,9.76338212198818,0.012279789845844337,0.0009032453940193175,-0.007572860313266171,2.0864237513101918,-0.5798699932424641,-1.1944170197623027
26759,1.517,0.9979778364367383,0.006245029603142542,0.001661540698137323,-0.06323351064753273,-0.04191924387137202,0.0302831896863909,9.72717508048993,0.010159013343196592,-0.0017232487442300787,-0.009239356525051185,2.0845272267756814,-0.5880004438475019,-1.2021667474559101
26760,1.525,0.9979772803627537,0.006228966252935175,0.0016811815082773448,-0.06324335133370385,0.012205421316829815,0.055925475350599274,9.754063675888068,0.006075948926547214,0.0049669946192833474,-0.01082837227713037,2.0862814414923365,-0.5785373363427806,-1.2083477281518789
26761,1.533,0.9979772861335832,0.006230672966625601,0.0016897288030116198,-0.0632428643595761,-0.027283274448408588,0.06976806274574827,9.757023335921728,0.010563680770276071,0.0026955074353998214,-0.008378965148886966,2.0862454274072104,-0.5831294409648019,-1.203421227081123
26762,1.542,0.9979775959633786,0.006225926726093024,0.0016885792379449007,-0.06323847319247043,0.0035581790525381846,0.03086951361348794,9.763373156211305,0.009125222931551295,0.00016043528537450344,-0.007434311004507242,2.086224029063037,-0.5828574964319678,-1.2004940677458018
26763,1.550,0.9979780912252871,0.0062256974275686355,0.001692173486847099,-0.06323058338149531,0.011699884855528305,0.058189146835681854,9.75405105504294,0.010184496931046325,0.0014737073643390094,-0.006600521039097321,2.0928251320040627,-0.5748128084703475,-1.2017429856306896
26764,1.558,0.9979781001421497,0.0062295248892370704,0.001688138632368259,-0.06323017352718566,0.020940401473327652,0.03502609327583315,9.693815761590303,0.011216384950428487,-0.0004105965932925344,-0.008403014069806211,2.0830757446774864,-0.5760543177611586,-1.203999891792679
26765,1.567,0.997977135037463,0.00623698356222304,0.001693499773524107,-0.06324452574713078,0.03460309113296483,0.05924538268420921,9.772144504988086,0.011971111048335651,0.0020317866920736894,-0.01195765049046887,2.0810387444849625,-0.5766777648892915,-1.1925334301208501
26766,1.575,0.9979769556178502,0.00623416599101275,0.0016973371324113923,-0.06324753178412194,0.004574031663256952,0.04923210007022407,9.71486989061681,0.009500656377640715,0.0013809835164158412,-0.009210035010820641,2.089848462171018,-0.5842735980657875,-1.195326805275132
26767,1.583,0.9979771584541174,0.006244399125587949,0.0016849046927852524,-0.0632436540657043,0.011467148060387037,0.06178905550661037,9.754029193204893,0.012928784229076359,-0.0022027502597193106,-0.007592711830012989,2.08526059489509,-0.5740850554245446,-1.2022935106914425
26768,1.592,0.9979770989086202,0.006228288685505929,0.001686501563754154,-0.06324613969611351,0.019484578991557963,0.0236405452618536,9.742297133092046,0.006348096199732523,0.0006373249923678553,-0.009073314208383526,2.0866608317030972,-0.578640073498061,-1.1934503319170326
26769,1.600,0.9979774133124518,0.00622331007135777,0.0016848983391639677,-0.06324171129508407,0.0194505923309599,0.02426983922410089,9.742295654843382,0.009121495173984157,0.0001594296135748774,-0.007431240231836126,2.0825474695714066,-0.5867450271010017,-1.198530767716665
26770,1.608,0.9979776078287489,0.006231890958494092,0.0016860618916244479,-0.06323776563721607,0.003245812884268078,0.03754056396897123,9.763349895568709,0.01227193232918866,0.000902540481456482,-0.007566617321371563,2.086500709699888,-0.5767959782626508,-1.2049444450157483
26771,1.617,0.9979777408138127,0.00622217432638699,0.0016792599081728078,-0.0632368047340455,0.019414498387765787,0.025966134529883615,9.742291352900825,0.00806121238242076,-0.0011549324914863004,-0.008263440014576929,2.0847485676403745,-0.5821112001119121,-1.1990469908232744
26772,1.625,0.9979780522587484,0.006217415002124856,0.0016781131484909716,-0.0632323880364124,-0.011536441104193417,0.06633511091043072,9.735899407324924,0.009119957845464514,0.00015896403757691528,-0.007430057867324047,2.0949935988174615,-0.577461147757852,-1.1977954575428127
26773,1.633,0.9979776961464341,0.006209620688890066,0.001676258984276331,-0.06323882320990953,-0.012883011643716228,0.05218419179932193,9.784394586175907,0.008437180262662715,6.539739078194657e-05,-0.010040235022520376,2.085959908454103,-0.5879587214804338,-1.1977618235551437
26774,1.642,0.9979775194656398,0.006206813296328128,0.0016801322188670917,-0.06324178417502516,-0.0036399868332654866,0.0288382270703861,9.724180323248753,0.009495684056229218,0.0013793900825228953,-0.009206832750930804,2.081357730431112,-0.5782398948078493,-1.2027709084883087
26775,1.650,0.9979767453247748,0.006220877789498389,0.0016775968884056287,-0.06325268483770743,-0.013016587066974804,0.05385787924287014,9.784385343050557,0.013677509615201828,0.00023799710508486655,-0.011143057991219108,2.086184733812984,-0.5832947616706843,-1.195118723882873
26776,1.658,0.9979763794582694,0.006211407750126464,0.0016892990148096392,-0.06325907623388997,0.0030059649518771187,0.04232747901595022,9.763330390638156,0.007779547395257435,0.003169901797958803,-0.010015091288642065,2.0869280132035932,-0.5808673729118197,-1.196601286884322
26777,1.667,0.9979763949669618,0.006214976428346287,0.0016847542485564462,-0.06325860225980831,-0.020130337806478805,0.04381936810235952,9.745220956997562,0.011208413966651246,-0.000412080784836023,-0.00839583301382938,2.095998705886497,-0.5772541046849015,-1.2016966062158831
26778,1.675,0.9979767059320297,0.0062102078526458625,0.0016836676024489152,-0.063254193528077,-0.02012295038973079,0.04464334661475855,9.745217231202906,0.009116751388720477,0.0001582976041414991,-0.007427294448433059,2.08818818229194,-0.5775005522156383,-1.2019955214764761
26779,1.683,0.9979763505416764,0.006202398563315915,0.001681808158069309,-0.06326061596995901,-0.012145320413624122,0.006417858614592458,9.733521556731976,0.008433683428625697,6.381707107271037e-05,-0.010037173699042187,2.092111750391783,-0.5836269718448388,-1.2043502512736084
26780,1.692,0.9979760635921772,0.0062147535861250686,0.0016747874932613288,-0.06326411638345525,0.0029194497087939044,0.04552560822608937,9.763316031084662,0.013297424289779971,-0.000982963793643165,-0.009362118819865305,2.093788362842751,-0.5865148049352354,-1.199915728516857
26781,1.700,0.9979766869748765,0.0062030942579137886,0.0016630332647945294,-0.06325573647217934,0.019223726774310022,0.03397230381834886,9.742267102559238,0.0076804988451781055,-0.002376806498010767,-0.006481117485177501,2.086716730630722,-0.5704115215563058,-1.2010969547821433
26782,1.708,0.9979768726975837,0.006209696795662446,0.0016772748879066342,-0.06325178238917276,0.01915554033949403,0.03475638589832355,9.742264473581017,0.011607568097217063,0.0040071859539673165,-0.007538173520134465,2.087986404331749,-0.5843918114391468,-1.2077913608038295
26783,1.717,0.9979780332774072,0.006210316615330964,0.0016942084321415723,-0.06323295597300782,0.04182219059515868,0.03494145982680228,9.760368986004874,0.01019899193810304,0.004672472696449259,-0.0039600076667113075,2.089613827205566,-0.575984780482712,-1.1966280122655821
26784,1.725,0.9979779835197795,0.006196080063768993,0.0016826622902278096,-0.06323544614578229,0.04990222134318466,0.06217276927106434,9.751001532212904,0.006996991813366107,-0.0024724194140604834,-0.009089814991400809,2.086208442031771,-0.5760010058476829,-1.1983618595845802
26785,1.733,0.9979775111175677,0.006201549803089024,0.0016830591992515313,-0.06324235444191724,0.026944174641887735,0.06362674881585222,9.732889165854429,0.01157936352955906,0.000806404547880068,-0.010169267174999237,2.0908501016899708,-0.5825971414455415,-1.1987536148351867
26786,1.742,0.9979778239720458,0.006196777969504255,0.001681965644832816,-0.06323791421597214,0.002557507620464747,0.050348789632846676,9.76329244841834,0.00911272100180139,0.00015710469859995122,-0.007423938447540228,2.085942485983164,-0.5818323018512335,-1.1953785387533182
26787,1.750,0.9979776513388047,0.006193679939392585,0.001685299933408531,-0.06324085326137345,0.04168880116127918,0.038005780306224375,9.760358104609624,0.009487599477431313,0.0013765167015472037,-0.00920107766551145,2.088168365225863,-0.5801604810495506,-1.1992846710715184
26788,1.758,0.9979789360229656,0.006183172927572522,0.001687404815129526,-0.06322154926927573,0.0023993301257889663,0.051805143773258636,9.763284868956434,0.007704413339317297,0.0008230380003976364,-0.0038462101178219207,2.085488667530688,-0.5740641942410106,-1.200094618116646
26789,1.767,0.9979783547773567,0.006203835227383595,0.0016769776497499334,-0.06322897729928686,0.01044152755180437,0.013803249089604425,9.751620135154699,0.015381944751758496,-0.0015550046736618791,-0.01032340814349157,2.0891256776106886,-0.5742758731325242,-1.196647806572614
26790,1.775,0.9979795075026664,0.006204631545584002,0.0016944150719024292,-0.06321023738037525,-0.020724377320701617,0.05446509050415206,9.745166028475804,0.01019474006871856,0.00467266421450945,-0.0039586275293071365,2.089629956448195,-0.5750291231804243,-1.1988343915419826
26791,1.783,0.9979787368616708,0.006218644469862738,0.001691867777427862,-0.06322109471027976,-0.04394714793895948,0.056109395208301695,9.727051442701173,0.013665355898848364,0.00023409137518812397,-0.011132514786134749,2.0832996889429034,-0.5840850982670895,-1.2012362640582426
26792,1.792,0.9979788704701162,0.0062091326239969245,0.001685515315118338,-0.06322009020376142,-0.060095460496245444,0.06940154235842114,9.748078112758183,0.008051726979213669,-0.0011594857367678553,-0.008253427782803628,2.088666985247409,-0.5853011105558033,-1.200697165492931
26793,1.800,0.9979791877137034,0.00620410197276933,0.0016839011844661503,-0.06321561900202712,-0.02085695998421881,0.0570081909292809,9.745151199348863,0.009109142262312284,0.0001558212818198697,-0.007420889186282821,2.0818390804786655,-0.575056938091803,-1.20182097873404
26794,1.808,0.9979793223633443,0.0061945900308241555,0.0016775180127682524,-0.06321459580561846,-0.005953442385072136,0.03050869003516482,9.772643321767463,0.00805084611902459,-0.0011598159992985521,-0.008252646510275451,2.0920926788663285,-0.5755451973347138,-1.2017413861520216
26795,1.817,0.9979791508227894,0.006191471227228131,0.0016808454476525234,-0.06321752103371457,-0.005964427996112475,0.031222214846792527,9.772641062234369,0.009482727452018,0.0013745133271791457,-0.009197724747310529,2.085691637054558,-0.5757197896777224,-1.1944617772306216
26796,1.825,0.997978057449327,0.006210406539796948,0.001702074164281613,-0.06323235440673085,-0.0062623318905950355,0.03219563073809763,9.772637721750339,0.014435946183032428,0.0058726612647247035,-0.012054197235653796,2.0949869517670825,-0.5703721170985193,-1.1968861827217199
26797,1.833,0.9979786830207726,0.006198725172847009,0.0016903119953239445,-0.06322394236137534,0.032799272730661445,0.02001995835808647,9.769718464318034,0.007675169412244375,-0.00237911795597534,-0.006473441118172711,2.0920853540517466,-0.5782213515335969,-1.2007393974369553
26798,1.842,0.9979794710169965,0.0061900457310257615,0.0016974226843861158,-0.06321216274353211,0.00979216240073766,0.021317800473649288,9.751607271984877,0.008074663952194134,0.00204151436274412,-0.005620820180273521,2.0835495326929863,-0.5789653299443708,-1.2020155234604533
26799,1.850,0.9979796713956615,0.006198287632267334,0.0016980739811699474,-0.06320817396658651,0.03400494163051834,0.036250839185608494,9.721183527259326,0.01225315998991333,0.000900328461079827,-0.007552096419475703,2.0886710119529583,-0.5787142465950709,-1.201247993568475
26800,1.858,0.9979796804584204,0.006200122857964025,0.0017070215516086123,-0.06320760987475048,0.048830976635361886,0.0754734780774965,9.750913079872467,0.010537185790668568,0.0026891596515311524,-0.008363389174059736,2.0859624386020816,-0.5772193360456781,-1.1981079319370704
26801,1.867,0.9979790295900546,0.006200819975088951,0.0017021992994754032,-0.06321794719598868,0.02562427276042708,0.011505886342160852,9.730580320414576,0.010511127526284728,-0.0005135015111167551,-0.010992193084089668,2.0877160602750613,-0.5763007652918956,-1.2042077879758124
26802,1.875,0.997979524845191,0.006200711652729625,0.0017062298218756611,-0.06321003041101847,0.03372437339842285,0.038871327147440266,9.721174378213638,0.010161884471375313,0.0014705852281851773,-0.0065849862374224915,2.086017693653714,-0.578267709719228,-1.2056664766029064
26803,1.883,0.9979795356031179,0.006202297916458073,0.001714757755754001,-0.06320947416155281,0.025415168838810932,0.013186661777948456,9.730578736437565,0.01053511750386686,0.0026886613576775024,-0.008362066477393673,2.0881563135210985,-0.5737968855267396,-1.1976360734127098
26804,1.892,0.9979803377940943,0.006195535310776172,0.001708633430239439,-0.0631976367469528,0.010466389765449127,0.04113056677459532,9.703056950817887,0.008730046435255948,-0.001063965693837857,-0.005638384172672808,2.0899037849990703,-0.5843454532535157,-1.202894621330365
26805,1.900,0.9979797602692487,0.006216147597072734,0.0016981994703701932,-0.06320501341304868,-0.03126331822589843,0.02569635975422166,9.803037850269632,0.015370071493935588,-0.0015576829668223643,-0.01031082834874812,2.0847344941107826,-0.579163101380195,-1.1971218202030192
26806,1.908,0.9979786147798638,0.006217123442060832,0.0017118818117820974,-0.06322263264712373,-0.028739958667267928,0.056195303011276926,9.705951599565484,0.010222701080085952,0.0038075371915263206,-0.012747559018775771,2.092625528365645,-0.5760914043096635,-1.2078362585456341
26807,1.917,0.997979413895785,0.006208231878723799,0.0017184073598581334,-0.06321071407057045,-0.04648666802135522,0.05463347972293638,9.775503024106584,0.008070053249863606,0.0020406051075920304,-0.005617946937021382,2.0957723161936253,-0.5787420615064495,-1.2041257148051396
26808,1.925,0.9979794279999779,0.006211912044618914,0.0017142801674750257,-0.06321024190030146,-0.038426813167870284,0.08193906985307453,9.76607965606111,0.011190306589284472,-0.00041700179214629936,-0.008378751924028023,2.089587075039323,-0.575705882222033,-1.1929684836345928
26809,1.933,0.9979796297788643,0.006220125778789976,0.001714929238815634,-0.06320623070111957,-0.022253246235185944,0.07046319676516823,9.745060113357173,0.012246423719795386,0.0008993161251568118,-0.007546639129749294,2.0892017379628163,-0.5841407280898469,-1.2070523859165445
26810,1.942,0.9979797579725758,0.006208694043651245,0.0017217134569845196,-0.06320514613576987,-0.03049906895098297,0.044735660885263276,9.754477336660269,0.007384925626213321,0.0019412476756556813,-0.008226117504731142,2.092557611621467,-0.5774681014856966,-1.1985456737164137
26811,1.950,0.9979789819328035,0.0062207194255011556,0.0017322363064364587,-0.06321592859061656,0.016626018884882406,0.05904283266227805,9.742152203177804,0.012991019254603955,0.003334234703660157,-0.01110048332137489,2.0811309340797184,-0.5855869625443266,-1.205144388741181
26812,1.958,0.9979794857581555,0.006220666169097989,0.0017362524336827665,-0.06320786933434666,0.015119719244635258,0.04527990969694107,9.79069586942105,0.010156034314558518,0.0014695872932826005,-0.006580564118159556,2.089875654883993,-0.578205126168626,-1.199046597937204
26813,1.967,0.9979791453431427,0.006214700270651444,0.0017212705821929087,-0.06321424039169915,0.024569681934302458,0.021813304727679384,9.730565392651691,0.009074371246350318,-0.0030514455740808326,-0.010038613999147869,2.090141068721236,-0.5801859780516477,-1.2019557476532867
26814,1.975,0.9979789734067438,0.006211791063461308,0.0017251149321552848,-0.06321713587530109,0.055772191772502804,0.04848595967717653,9.73924529497812,0.009470977672884703,0.001369896618133476,-0.009188759785408847,2.0893942201159144,-0.5826087309919491,-1.199984938454726
26815,1.983,0.9979791856470285,0.006221911831894596,0.0017126795558238801,-0.06321312804465647,0.0626159851160921,0.06122803933328652,9.778358783186814,0.012901771158927596,-0.0022057125630365066,-0.007561253330802483,2.0891629340918096,-0.5774982343063569,-1.2017442596267467
26816,1.992,0.9979794954123068,0.006215181288125987,0.0017246427370848111,-0.06320857430430667,0.055756933472140384,0.05026718573869431,9.739236351499512,0.00843786026829316,0.0032568601056718154,-0.007392814652573461,2.092844559355724,-0.5777678609299095,-1.2044005255466126
26817,2.000,0.997979517477312,0.006218651072018446,0.0017200795441173868,-0.06320800899378295,0.03812982650787309,0.04881560711566214,9.808790190701435,0.011184903588311503,-0.0004183984432616026,-0.008373702463590493,2.083775634336072,-0.5816275766875647,-1.199547011466258
26818,2.008,0.9979792302936173,0.006229002255023656,0.0017261088712979165,-0.06321135959327927,0.047454730070963416,0.025515703975092348,9.748669659563607,0.012612585721716491,0.002115488398678034,-0.009319403763648851,2.0859584118965326,-0.5838062000064106,-1.1975571038615267
26819,2.017,0.997978763594695,0.0062343710035539035,0.001726478839663951,-0.06321818807124033,-0.02301927120861697,0.013588524070694987,9.742881270919415,0.011555623475811194,0.0007980382007503374,-0.010149903807668555,2.0860030440245505,-0.5836200181169942,-1.2036624991727738
26820,2.025,0.9979792724711921,0.006234349817886961,0.0017305132129543123,-0.06321004607053037,0.024222743092760124,0.027970186579614618,9.730550512948534,0.010151176963134473,0.0014688412087142113,-0.006577349178407668,2.0991116708952298,-0.578640073498061,-1.1933593128395732
26821,2.033,0.9979802634213937,0.006232075688553263,0.0017291635790505338,-0.06319465995869743,-0.024481236563480824,0.0660862695378109,9.793538820071227,0.009778810280170797,0.00025201245922754485,-0.004799487218899085,2.0911372866417,-0.5794790861893787,-1.2046409165282765
26822,2.042,0.9979800985810421,0.006231070888962708,0.0017200762287003105,-0.06319761015669749,0.007998573331695135,0.042024227945542475,9.751541659092881,0.010125958135981635,-0.0017368249765560059,-0.009201900744593608,2.081348061853707,-0.5889700086054788,-1.2014483077121583
26823,2.050,0.9979793243121863,0.006243051135317658,0.0017305890458738974,-0.06320836668882139,-0.02999439120121816,0.005156537799457004,9.703765447740562,0.012980342893699488,0.00333095233034658,-0.01109428937757287,2.090139080784619,-0.583113215599831,-1.2016838103865388
26824,2.058,0.997980135916476,0.00623450070604118,0.0017375111770195446,-0.06319620536067573,0.022625565849499985,0.01672818931142608,9.779105433706933,0.008061400535138255,0.00203888028917556,-0.0056128062401105214,2.084778617915649,-0.5863008081344404,-1.203157680093786
26825,2.067,0.9979805205298838,0.006247390196559652,0.0017433706133206488,-0.06318869691281087,0.007533881744647227,0.04468723875762563,9.751530191474004,0.013291531987616153,0.002215316024643059,-0.006707164076659903,2.0889204490445192,-0.5794535891872814,-1.2019716246343015
26826,2.075,0.9979812165123894,0.00625394460209432,0.0017394819505807263,-0.06317716255031812,0.04668714999870263,0.032703821516494425,9.748651901217704,0.011863759862049615,-0.00031880668253392124,-0.005760019244938097,2.081829886336202,-0.5789514224886815,-1.200563277683671
26827,2.083,0.9979814206376699,0.006262108455570401,0.0017401259884469481,-0.06317311153690205,0.022325212578915517,0.08508600627914623,9.781163719742477,0.012234471414537037,0.0008971721512692836,-0.007537032377179445,2.083752569993278,-0.5796444068952613,-1.196391953963826
26828,2.092,0.9979821098437028,0.006268619973716495,0.001736306418219564,-0.06316168201971065,0.06153104167702299,0.07306718338391048,9.778284370366212,0.011862553223531847,-0.0003190853686415485,-0.005758975016740055,2.0935995176807856,-0.5870749193658745,-1.2074806935651843
26829,2.100,0.9979821337578602,0.006272059281838594,0.001731734262276917,-0.06316108824995345,0.02361683323812678,0.10163941870193173,9.732575072137665,0.011177647394559292,-0.00042114219506857436,-0.008366808343521385,2.083250160483653,-0.5776728266493657,-1.19446108132976
26830,2.108,0.997981720964585,0.006293738250982082,0.0017531661240449364,-0.06316486276352755,-0.009018758941846115,0.062117763176113186,9.77249118049272,0.01508507522134107,0.0059641308129588485,-0.009429039777765366,2.0900893998284227,-0.5788981105752057,-1.194887767031912
26831,2.117,0.9979815547641837,0.006290524197150551,0.0017564600894807703,-0.0631677172592344,0.006899018991639994,0.05067086435089248,9.751501402414869,0.009460423265641277,0.001364726299149801,-0.009180798827889,2.0820811588674344,-0.5789606941258078,-1.201537985390101
26832,2.125,0.9979812748030186,0.006302746470216198,0.0017494865000280318,-0.06317111544417085,-0.07155021965270084,0.012100321842015482,9.755193572015543,0.01326257650112151,-0.0009923825564689002,-0.009326625105687653,2.083100000583959,-0.5865843422136822,-1.2073179477364402
26833,2.133,0.9979808104391028,0.006308072764635393,0.0017498417179189723,-0.06317790964625077,-0.02551111633037909,0.012019140593791777,9.791429100264386,0.011545686174462388,0.0007935637759290136,-0.010141643549248236,2.0862190649553845,-0.5772355614106491,-1.1998150089391688
26834,2.142,0.9979810161744356,0.00631647185006085,0.0017508301596898686,-0.06317379308352979,-0.07969688947381633,-0.012451307876775779,9.764671701069988,0.012229380679513785,0.0008960877220950189,-0.007532928152068744,2.086723021854895,-0.5826272742662016,-1.2019575548088999
26835,2.150,0.9979812211495366,0.006324611365111358,0.0017514703917102764,-0.06316972277465575,-0.016220661723645356,-0.010379927823803717,9.731351537494342,0.012228673577998426,0.0008958834307176803,-0.007532366312176753,2.0918013824885247,-0.5864707646588858,-1.1952916671466414
26836,2.158,0.9979814176472447,0.006331150474513885,0.0017657956764239799,-0.06316556443264415,0.014613647644100964,0.08204557563586178,9.741988861555468,0.011566803006455495,0.003999972769398103,-0.007517410649570793,2.0916093239380533,-0.5818995212203986,-1.2024170607921931
26837,2.167,0.9979818132566722,0.006345933126869392,0.0017585689484022641,-0.06315803176895386,0.014482529661733369,0.0830819356823166,9.741980275425131,0.013943428173374739,-0.0008903562304492143,-0.006714835998541273,2.080811761748413,-0.5867102584617783,-1.1948814140528794
26838,2.175,0.9979816499605387,0.006343018582096305,0.0017623879360204055,-0.06316079833307398,0.04555092171637173,0.11002092538796215,9.750600345413673,0.00945576139124144,0.001362469456215502,-0.009177411492465388,2.07647151306848,-0.5777469997463756,-1.2023229917417622
26839,2.183,0.9979830596799582,0.006318902744272454,0.001761690883041523,-0.06314095742994602,0.03870036757251355,0.09866217972170452,9.711501504679346,0.004542606780098463,7.366920987305199e-05,-0.0036997521465004187,2.084044464891084,-0.5858102309822482,-1.2029235467533086
26840,2.192,0.9979822867852037,0.006331065609999178,0.001772509278197879,-0.06315165145961259,-0.001978172305126366,0.09776668358448305,9.762932899010767,0.012965655742644305,0.003325041011227805,-0.011084869483828697,2.088196918943567,-0.5801975675980556,-1.2031906406484127
26841,2.200,0.99798115497958,0.006333547529751568,0.0017725660642972387,-0.06316928439407934,0.029109351722629972,-0.00622755282439857,9.767596035816302,0.01085551927746156,0.0006873891342384392,-0.012744713335831118,2.0879795708962128,-0.5799882066158235,-1.2068565896618941
26842,2.208,0.9979809850252214,0.0063305108137894075,0.001776266363806003,-0.06317216981180154,0.014081977588834938,0.021627134489628694,9.73997616431732,0.009453366756933795,0.0013617775079694586,-0.009175508585680914,2.0928017457232726,-0.5774681014856967,-1.1985438890286202
26843,2.217,0.9979800440688806,0.006339635130683018,0.0017684574835239329,-0.06318633732710231,-0.0020662481191994733,-0.030503463011926545,9.75897820458697,0.012570124547600559,-0.0010985088073035124,-0.011926438507660545,2.0869433630173893,-0.5911416781964802,-1.1987010451826527
26844,2.225,0.9979806203068677,0.006359432038177591,0.0017670733402067008,-0.06317528447013178,-0.016985723413203934,-0.002365460947021647,9.731355482653257,0.014993151819631489,0.00042881856329399817,-0.005880142684721317,2.0879331711049436,-0.5799279409745032,-1.2005093890994405
26845,2.233,0.9979812438331421,0.006345744203409229,0.0017683646150642308,-0.06316677429114011,-0.025203215797259024,0.0374940976929158,9.74281319426107,0.006996104289293151,0.0007170251476782854,-0.0064362182278288336,2.0913636085581513,-0.5789676478536524,-1.2022025365496225
26846,2.242,0.9979804867610628,0.006361728612481948,0.0017532209783708678,-0.06317754877655951,0.00595936610044386,0.0643688115688711,9.751421226807423,0.01428406244995099,-0.002884740864295225,-0.011107052956837223,2.0850231925641878,-0.5799534379766003,-1.2032161594370752
26847,2.250,0.9979816495325199,0.006362177796860946,0.0017701714637047743,-0.06315866039603235,-0.025308582629921694,0.10482780130389553,9.74474358184212,0.010157550239458944,0.004674132243923293,-0.0039455742702077835,2.0935302568759826,-0.5821019284747858,-1.198006249668491
26848,2.258,0.9979824593879209,0.00635539123287373,0.0017641417835524045,-0.06314671456284902,-0.04169726560640342,0.11805267401719963,9.765696460432101,0.008711215461342563,-0.001068444693362172,-0.00561775555516166,2.090731008711856,-0.5810504877450627,-1.2158602413533386
26849,2.267,0.9979816992731688,0.006369209960013574,0.0017615457401492242,-0.0631574068255614,-0.07274363305216572,0.09293803388992745,9.75708094844136,0.013619685564644872,0.00021834949057009887,-0.01109236648030909,2.0896102749349583,-0.5757360150426933,-1.1961420839158197
26850,2.275,0.9979815284370113,0.006366133021533924,0.0017652438934393114,-0.0631603131948863,-0.04033552683805,0.06894725839054525,9.71515323649824,0.00944811205314104,0.0013594360642287038,-0.009171977000663458,2.0908737082441267,-0.5767681633512722,-1.2019828434527975
26851,2.283,0.9979813652754649,0.006362864022810857,0.0017685194128010903,-0.06316312898704315,-0.057839728863814735,0.002157497957525605,9.782791904846839,0.009447514930528821,0.0013592634299083633,-0.009171502376679172,2.088676331886817,-0.5792094595658261,-1.2019757271694442
26852,2.292,0.9979804069530489,0.006370243254265127,0.001774314410573263,-0.06317736261574534,-0.05669670211521185,0.017549910574426078,9.734187996367368,0.011900718860848057,0.002002305673691753,-0.011908081469974602,2.0859192521993197,-0.582290428273484,-1.1922003027773929
26853,2.300,0.9979810427153505,0.006358478820293746,0.0017625194199302667,-0.0631688345085504,-0.04171794179965638,-0.008647233276078924,9.761835041056996,0.007655313146209653,-0.002388250336498965,-0.006445211420593642,2.0938370386204235,-0.5794976294636311,-1.2065742697509971
26854,2.308,0.9979798979994322,0.0063592636013642175,0.0017762407412304359,-0.0631864536457057,-0.010712284655754776,0.018111562295252945,9.770430252242024,0.010182464508289583,0.0037861630658624717,-0.012725157716714643,2.0847611446123953,-0.5809067773696062,-1.2007674417499123
26855,2.317,0.9979820393402615,0.00635591666948703,0.0017833486544999455,-0.06315276039192462,0.036347194565667214,0.0324841847772213,9.758068770023577,0.009415759933698878,0.0022473341087777964,-0.000388666890747067,2.0777132938718994,-0.5821691478439511,-1.2052018242331781
26856,2.325,0.9979828442102106,0.006347191343926876,0.0017902286668141977,-0.06314072303564316,0.060464826204857616,0.04723911239444654,9.72758345027584,0.008045040994345672,0.002034971154223044,-0.005602876796737684,2.0891558464946987,-0.5767565738048644,-1.2007747207745711
26857,2.333,0.997983170674331,0.006342021461885961,0.0017885771400029129,-0.06313612916865345,0.07518439552434507,0.08644435506705976,9.757122135846915,0.009076048497672977,0.0001444614284835569,-0.007391355224749823,2.094535685883014,-0.5772564225941831,-1.201951437441199
26858,2.342,0.9979831893219016,0.0063455987199819985,0.001784574087662001,-0.06313558824543423,0.10640883986647323,0.04783476854398307,9.763824438441867,0.011160331416276781,-0.00042632690800299754,-0.008349932045648099,2.084535381851411,-0.5733619381973046,-1.2032823106910941
26859,2.350,0.9979830271297561,0.0063423106170472955,0.0017878435320833345,-0.06313838984699133,0.0994361204524971,0.1021565106975118,9.72662080553944,0.009443049132001412,0.0013574786524210571,-0.009168055865980865,2.0954778742037345,-0.5835597524756737,-1.1972456957863804
26860,2.358,0.9979835834059618,0.006310887055628569,0.0017821888161956509,-0.06313290552311639,0.09942904421785714,0.10265938646876899,9.726615580944523,0.0027986218465275593,-0.0013546233126190354,-0.007131702342740294,2.08656827061786,-0.5805460031371811,-1.2141863550506324
26861,2.367,0.9979820397626883,0.006335092028613588,0.001781571482907547,-0.06315489627213586,0.03606505230496061,0.03682881435354184,9.758054391304437,0.016063466176218903,0.0008587885514640692,-0.013820878986466471,2.093033285908953,-0.5789166538494582,-1.1968193355668395
26862,2.375,0.9979824812475855,0.0063169026931688705,0.00177805359313109,-0.06314984076541776,0.029290284085049034,0.025709113353394136,9.718980761187606,0.00593572774684764,-0.0006055978328227493,-0.0072601669566866745,2.090397847571484,-0.5780050368235202,-1.2036836852815287
26863,2.383,0.9979817243053415,0.006330677533467864,0.0017754498795180273,-0.06316049597834093,-0.03424822228833313,0.025377506151735684,9.752290451156663,0.013609320195456921,0.0002158283427170587,-0.011083344393316851,2.093346748591983,-0.5829131262547251,-1.206301266165137
26864,2.392,0.9979818686515738,0.006321039681673416,0.0017690530480532392,-0.06315935996643092,-0.058495667507029,0.012214471071657185,9.782780616582858,0.008019215590135296,-0.0011765451668594052,-0.008217796360668331,2.0850230908995573,-0.5814182157053326,-1.2032022523529793
26865,2.400,0.9979821959834809,0.006315851863262326,0.0017673997859013225,-0.06315475289499188,-0.089496651296262,-0.01315953342774702,9.774206177766583,0.009071803089359776,0.00014364960799235165,-0.007388122006242209,2.0884500777467867,-0.5787443794157311,-1.204423378537495
26866,2.408,0.9979822240706412,0.006319459553299336,0.0017632542524557428,-0.0631540640371833,-0.08145745764509912,0.01416547400803715,9.764654836022325,0.011155477143797748,-0.00042703858693896485,-0.008345908661380285,2.097937213792311,-0.5813857649753907,-1.1996899405201504
26867,2.417,0.9979820627959031,0.006316149873064531,0.0017665193964588077,-0.06315685234111794,-0.10451004039010107,0.01543164383186255,9.746529056003446,0.009437903214518943,0.0013560614538678628,-0.009164789549773582,2.0823409138887174,-0.585328925467182,-1.2036730445582282
26868,2.425,0.9979820941008474,0.006319817922405331,0.001762500167532517,-0.06315610302001629,-0.08153523152482453,0.015829259681345874,9.764651631535866,0.011154263618808445,-0.0004273103553468398,-0.008344813565967476,2.0825643782428687,-0.574559407211766,-1.200843767971135
26869,2.433,0.9979821245035608,0.006323155965049957,0.0017579093657372616,-0.06315541643171878,-0.05722207885559493,0.030765949141356153,9.734152122438823,0.0111536031245114,-0.0004275015187120559,-0.008344288422565155,2.090153357643471,-0.5831317588740835,-1.203636795174986
26870,2.442,0.9979813640927901,0.006337152472427156,0.001755795781672704,-0.06316608744578171,-0.01920729923006104,0.004411481680784527,9.779959833513027,0.01360353063727879,0.00021423238208515862,-0.011078920251105623,2.0796685579522287,-0.5763123548383032,-1.2054872981657718
26871,2.450,0.9979812034338196,0.0063338310402162885,0.0017590576081430958,-0.06316886807179302,-0.02625176844082438,0.05878044467813592,9.742705254413202,0.009435112675485241,0.0013550268455612947,-0.009162942982627481,2.086698172904744,-0.5806417865646168,-1.198558374207912
26872,2.458,0.9979810271640949,0.006328806067499481,0.0017758542259551865,-0.06317168650610998,0.012783054384439333,0.04662688611296443,9.739890361125283,0.00877000441624687,0.0044584971325448575,-0.00915342136915883,2.0862388820214615,-0.5745756325767369,-1.2025258593441264
26873,2.467,0.9979810583189787,0.006332133825607239,0.0017712619734732541,-0.06317098977194863,0.04364237593037029,0.07352766111687928,9.748443575166705,0.01115117401774456,-0.0004280203180024242,-0.008341811951375082,2.0839751532539657,-0.5815696289555257,-1.1934421493145668
26874,2.475,0.9979815608278466,0.006331904458253652,0.0017754398098158138,-0.06316295628790926,0.05985986142637986,0.06191956044772288,9.727504823732472,0.010119442229771786,0.0014632580098778553,-0.0065551051316063685,2.0884517776336176,-0.5799673454322896,-1.2046559123993041
26875,2.483,0.9979811033348394,0.006337106042226931,0.0017757632330119427,-0.06316965362044527,0.051509169817295274,0.10178092751992837,9.73885762359524,0.01151628240803488,0.0007836270750774039,-0.010118171998220283,2.0906492387114524,-0.5763054011104587,-1.2046746179194043
26876,2.492,0.9979809370047038,0.0063339939988774725,0.0017794964830235274,-0.0631724883751057,0.07568845226657643,0.11666360082523272,9.70834379769388,0.009432140415412849,0.0013539095134668102,-0.009160530189707323,2.0891327482636948,-0.5752616632554719,-1.1976150275774402
26877,2.500,0.9979809564838185,0.00633536378066219,0.0017879831878545938,-0.06317180365898965,0.05124322834651187,0.10344701912230857,9.738841471208929,0.0104837658466451,0.002674899123884515,-0.008331228892408025,2.0847608565626095,-0.5850569809343479,-1.2007280383449734
26878,2.508,0.9979817725033627,0.00632858045669878,0.0017820043840237208,-0.06315975998074527,0.04316746941045276,0.07772436279920833,9.748413131308142,0.008699079978507865,-0.0010701065089200941,-0.005604719798649211,2.087002339780679,-0.5899975210954946,-1.2067686966717446
26879,2.517,0.9979806473235641,0.006330941591935312,0.0017820109527488894,-0.06317729958746131,0.02016519913187993,0.07891590045647674,9.730279955380695,0.010827352781641805,0.0006731819882049205,-0.012722107127493627,2.0857571930918075,-0.582641181721891,-1.2034294321514085
26880,2.525,0.9979801257659068,0.006316610523243592,0.0017882816461980012,-0.06318679495366476,0.018797936320526766,0.06520912309099039,9.778910431547471,0.006660286816637521,0.0018138498347947017,-0.010808201011053504,2.086261810811415,-0.5785118393406834,-1.2056623740677639
26881,2.533,0.997979297645755,0.0063104340662514784,0.0017912221867665318,-0.0632004067665602,-0.03535465120120877,0.04011079950941939,9.752237031361508,0.008742750391798464,0.0012432639352345765,-0.011764245942719138,2.092361339980289,-0.5821691478439511,-1.2050947429655787
26882,2.542,0.9979784665480396,0.0063045111941063894,0.0017946108525238725,-0.06321402389435413,-0.043454848604070576,0.014313631405846586,9.761820800110963,0.008742015744324464,0.0012430511470539367,-0.011763661776241658,2.0884155432751257,-0.587733135133231,-1.1996992793130072
26883,2.550,0.9979775208473927,0.006311563782534121,0.0017998458221872534,-0.06322809977318744,-0.05986321727820925,0.02762563606337286,9.782740965167207,0.011875972162661265,0.0019940900167575147,-0.01189073894870101,2.0862220919587355,-0.5850523451157849,-1.2002290840211018
26884,2.558,0.9979766386142608,0.006287860600402843,0.0017958548726898197,-0.06324449774113496,-0.09091523986291453,0.0021621980620453963,9.774201703458948,0.004554173116919726,-0.0008306233831197479,-0.012463339827482756,2.0910854313637306,-0.5808766445489459,-1.197547439586059
26885,2.567,0.9979753334975157,0.006285496335000125,0.001790626499742687,-0.0632654718079641,-0.06659023049007651,0.016763398218318074,9.743689022149969,0.009770795127372788,-0.0006495374813264357,-0.01354650466407465,2.0806718126374872,-0.5770795123418929,-1.2091350523508888
26886,2.575,0.9979751695348715,0.006282376907981483,0.0017943389676378738,-0.06326826281714928,-0.0758570101192213,-0.023365659273608917,9.80192441980639,0.009425580034391914,0.0013529113347524474,-0.009155716200352038,2.094079320338453,-0.5804718300401712,-1.2063190905752503
26887,2.583,0.9979749974929191,0.006277061141087212,0.0018106748276661955,-0.0632710387073581,-0.027565665104198712,0.005425311235414623,9.74089507508159,0.0087586685522754,0.004456011284938379,-0.009148182582418389,2.091842784283931,-0.5813973545217985,-1.2009551732077632
26888,2.592,0.9979745511454448,0.006284453967590894,0.0017985118613210258,-0.06327769164139249,0.0180496787780633,0.07103219230775884,9.778871280240581,0.012173493901982683,-0.0023208359994076858,-0.010117291374480919,2.0940204282956882,-0.5803953390338799,-1.1982630283229054
26889,2.600,0.997974509442004,0.006267852632411014,0.0017994684958420573,-0.06327996871445753,0.027667801271542867,0.04718968117118339,9.718904956052905,0.006289809583971654,0.0006004170670825639,-0.009026963974747318,2.0867507059469164,-0.569479043346834,-1.2057445650441028
26890,2.608,0.997974516019166,0.006269357990839769,0.001808553135048149,-0.06327945687387236,0.01922485349365476,0.08685315090198308,9.730214247355361,0.01047451641293569,0.002674440239458229,-0.008325589575901526,2.0889167442769656,-0.5814019903403617,-1.2014648356583948
26891,2.617,0.9979741777034821,0.0062612808971280725,0.001806573468357806,-0.06328564838010253,0.057155662064353775,0.06040649591192413,9.776070994612247,0.008371344776808311,2.984660173810561e-05,-0.009981629481804331,2.087705047637031,-0.5806811910224032,-1.202701328132189
26892,2.625,0.9979736455603566,0.006246855115516295,0.00181298352521528,-0.06329528148981736,0.027339788517190225,0.04924659878038433,9.718895679591641,0.006652687191886721,0.0018105612017194248,-0.010802988555076441,2.083329806994599,-0.5872981878037961,-1.2053562247181515
26893,2.633,0.997973667016247,0.006248179568449394,0.00182147125355999,-0.06329456877725083,0.04891706723317417,0.0352215826493826,9.785672300513342,0.010472580122707905,0.0026743134273834964,-0.008324270458822705,2.077184115251926,-0.5801627989588322,-1.1996091051207738
26894,2.642,0.9979731444786941,0.006233805770200585,0.0018276886535122693,-0.06330404504542482,0.07298921222895575,0.04994838693485173,9.755150524569096,0.00665163033060372,0.0018099974375969208,-0.010802107299156863,2.0943468407210504,-0.5778165370248223,-1.2095164024895266
26895,2.650,0.9979739522166717,0.006224729805132146,0.0018342004544958615,-0.0632920148563985,0.04185231463980313,0.024388129534632562,9.746628969056454,0.008025337277204886,0.0020336493633765543,-0.0055912287373495895,2.0889401983341767,-0.577770178839191,-1.2046732036498615
26896,2.658,0.9979739792889041,0.006228188955611815,0.001830044906662188,-0.06329136797576312,0.05647036293150106,0.06381318792679931,9.776053335129252,0.011138207176783413,-0.00042902021039124794,-0.008328928220969093,2.0872020959160444,-0.5865217586630802,-1.2006962843829443
26897,2.667,0.997973821323932,0.006224801207290589,0.0018332961754609393,-0.06329409788575761,0.08901212312330825,0.03969326482300161,9.73423372317153,0.009419274319485952,0.0013512400157409056,-0.009150680738538662,2.088421744302448,-0.5755336077883061,-1.200547540976142
26898,2.675,0.9979736625367166,0.00622173975004544,0.001837148487551988,-0.06329679077939189,0.026586862697004922,0.05361095561239702,9.718874675084114,0.009418683650521365,0.0013510687260316569,-0.009150211074245171,2.094481757947902,-0.5828018666092104,-1.1945744339954871
26899,2.683,0.9979738147970391,0.006211778670482184,0.0018302537766759612,-0.0632955682201221,-0.012727705219502087,0.06712974579904638,9.72164436579574,0.008003863764593333,-0.001182109555729465,-0.008200687198084894,2.085710894965169,-0.5811161383518381,-1.197096138673051
26900,2.692,0.9979745713141389,0.006187115495916362,0.0018169732896542903,-0.06328643788574582,-0.005840909695608112,0.07978976890467411,9.760676899852076,0.004507498771298604,-0.0031452819132756285,-0.006296667838383827,2.0803116960016124,-0.5766847186171362,-1.1932711534798979
26901,2.700,0.9979726764133331,0.006201756879389684,0.0018058560060961776,-0.06331519744976731,-0.044569016710920006,0.02785691194977793,9.761786526942947,0.013923955158947489,-0.0017946957822509745,-0.015445544179061707,2.0857363200148917,-0.5748012189239399,-1.2005741260839164
26902,2.708,0.997973474157204,0.006192910209657202,0.0018129772500207282,-0.06330328471120174,-0.07554501514708405,0.00256321625761411,9.753278761765165,0.008021851023199961,0.0020333805783817665,-0.005589515653227161,2.086702030169243,-0.5764962188184382,-1.1990860238099623
26903,2.717,0.9979713852330312,0.006200883880986959,0.0018096993350583482,-0.0633355214984218,-0.08357828768669179,-0.023124479099328587,9.762905613436903,0.012203486317611529,-1.557423364138561e-05,-0.016266466664852475,2.097706215817993,-0.5721250647250568,-1.2014886650971102
26904,2.725,0.9979720112661015,0.006189226974064215,0.0017985757171410364,-0.06332711365873,-0.027870446612962976,-0.04760360141450941,9.739237266865937,0.007638403826821081,-0.0023926706742257364,-0.0064214008547468044,2.0857467057210344,-0.5794535891872815,-1.2019948255756145
26905,2.733,0.9979723439314313,0.006183953288955173,0.0017969168758895319,-0.06332243330342366,-0.03612864492242867,-0.007942301806163204,9.750509063852732,0.009051262792388402,0.000140252647071527,-0.007370485858528473,2.085992488877357,-0.5814089440682064,-1.2022186212075823
26906,2.742,0.9979727424413166,0.006196907223705513,0.0018032642506017732,-0.06331470542505156,0.025687883352772566,0.04535003415984103,9.76750234177956,0.013232853982990017,0.002216710746355516,-0.006668778182749758,2.085773728992958,-0.575826413504674,-1.2056914397641931
26907,2.750,0.9979737450919836,0.006194466008797328,0.0018019352889666754,-0.06329917635452492,0.051064777986501275,0.07462309064060804,9.688298674569442,0.00973800576108806,0.0002534306079056954,-0.004764925529563118,2.091336822503698,-0.5791770088358844,-1.198538372223935
26908,2.758,0.9979740570173347,0.006187463055289621,0.0018138801457261735,-0.0632946021404555,0.049685286877435134,0.061039909596791266,9.73696011011303,0.008381485465389745,0.0032424114586802827,-0.007364992905076686,2.0891344312064204,-0.5767287588934857,-1.1978452435919003
26909,2.767,0.9979740803596532,0.0061887438100545035,0.0018223632835735102,-0.06329386520367501,0.05738278030966552,0.08830859040436312,9.72731597857142,0.010462137021744986,0.002672366035971773,-0.008318257683039712,2.0847006204592193,-0.5786308018609347,-1.1924881170251556
26910,2.775,0.9979733403920822,0.006204644728594978,0.0018074172247702022,-0.06330440342849189,0.056150950687070704,0.07500593237866543,9.775975709117093,0.014242022893933401,-0.0028939361136737134,-0.011056242503471085,2.0857989676575257,-0.5721969199127851,-1.209143930854216
26911,2.783,0.9979728099766755,0.006189860708502395,0.0018132596414548307,-0.06331404473843663,0.018536957875362126,0.03745700128992496,9.728458010221543,0.006641666235221349,0.0018040421500095244,-0.01079596480310271,2.091614745536543,-0.5809299564624218,-1.2031587014772582
26912,2.792,0.9979731215103134,0.0061827880248180814,0.0018250217687045874,-0.06330948720962629,0.01832956579691979,0.03806726472709793,9.728456035313846,0.008379011266078455,0.0032418891600284813,-0.007363678836372354,2.0857538610945663,-0.5792187312029524,-1.2029736358171874
26913,2.800,0.9979736350767697,0.006182196912739887,0.001828599069140443,-0.0633013456289421,-0.022412406340065215,0.03729425612151813,9.779882898302356,0.010097400316505384,0.0014627060282611122,-0.0065394999098724585,2.0920596917845526,-0.5879540856618708,-1.1972289601631991
26914,2.808,0.9979736801610262,0.006185838170526928,0.0018246081307334778,-0.063300394289103,0.010160270466028954,0.013178926153353539,9.73810133563945,0.011127820409302387,-0.0004310524701990108,-0.00831954954518889,2.0823108636134426,-0.5811393174446537,-1.1995623552877166
26915,2.817,0.9979738985990212,0.0061937630060587175,0.0018252509735000363,-0.06329615686421727,-0.021247469840241746,0.05339489137253474,9.731200908878943,0.012176935641855796,0.000892570783387724,-0.007491699551352722,2.088186177411218,-0.5806719193852771,-1.2017212663623786
26916,2.825,0.9979755092309609,0.006176562895735672,0.001817205164665626,-0.06327267033553506,0.00972174868431038,0.08036229548251622,9.739673971868733,0.006241920715570966,-0.0017096070653755222,-0.002858667591092432,2.087445529833218,-0.5708951449806535,-1.2005987188269527
26917,2.833,0.9979745978587133,0.006187431318303067,0.0017962561651577258,-0.06328657982709163,0.0015746428192778457,0.12014208388268102,9.75089525063638,0.013187755396405461,-0.004219346146345598,-0.011878266113625364,2.0894192046189053,-0.582641181721891,-1.2034026618345088
26918,2.842,0.9979744188302899,0.0061822440868186425,0.0018130928093126834,-0.06328942970877346,-0.014295352288404565,0.06803594545217066,9.770205567788288,0.008737036388878404,0.004449515248705016,-0.00913932365430288,2.0825726404595537,-0.5840920519949342,-1.2019739874172903
26919,2.850,0.9979736731293185,0.0061958384023720016,0.0018104624909300003,-0.06329993327672026,0.01813468645569393,0.04395664953664474,9.728431575720618,0.013566512993361259,0.00020693625164447355,-0.011046634932645046,2.0925540254626482,-0.577707595288589,-1.1980551096719523
26920,2.858,0.9979733390921971,0.006188043869920042,0.001809040525228211,-0.06330600245327027,0.010200816621411153,0.018348739762689165,9.738092922934902,0.008355548627715516,2.2218149138049576e-05,-0.009968070084915539,2.0901248717021876,-0.5821181538397568,-1.1997400969874887
26921,2.867,0.9979733785306037,0.006191255252178885,0.0018044404635006244,-0.06330519802693263,-0.012793369811616767,0.019400331571138213,9.71995835202038,0.01112343281681886,-0.00043207997731877743,-0.00831589902234718,2.0791675602796493,-0.5797139441737079,-1.2037495559885762
26922,2.875,0.9979734211499655,0.006194793193351981,0.0018002735506800285,-0.06330429867448442,-0.028593302191312325,-0.03269474924460239,9.739296633435325,0.011122780318252574,-0.00043226949935025634,-0.00831537995948616,2.0906342332560826,-0.586784431558788,-1.2026219656949357
26923,2.883,0.9979734608362153,0.006197999087976749,0.0017956722980164226,-0.06330348991083487,-0.028555976856455896,-0.03179402178371156,9.739299725029506,0.01112212798096395,-0.0004324589875554602,-0.008314861007181833,2.0918660689000905,-0.5802068392351818,-1.2041403627257368
26924,2.892,0.9979729008760435,0.006216638832985412,0.001798823405035678,-0.06331040003848241,-0.02190596065713841,-0.01850558572436952,9.7783139170813,0.014611403138058357,0.0015302011172491402,-0.010216471963404312,2.0891737095123686,-0.5765356232762248,-1.2032182696074794
26925,2.900,0.9979745248594217,0.006201060736622514,0.001777207250155202,-0.06328693476336934,0.0019627347361025256,0.06185916009679965,9.749282398073,0.006909569624136986,-0.004812070571961827,-0.0028573553518671316,2.0843246130780173,-0.5812181263602265,-1.2078482631362708
26926,2.908,0.9979747267603165,0.006207203694460462,0.0017912523437595106,-0.06328275266617762,-0.0046983319727345995,0.050353553305273496,9.710268805389196,0.011499394273953217,0.003993987990391363,-0.0074852072906737115,2.0830573225043487,-0.5843315457978263,-1.2014798539972427
26927,2.917,0.9979749611352717,0.006217061726429022,0.0017788143362062105,-0.06327843953591146,-0.029503347114782565,0.10283248255648768,9.742330575710286,0.012838810149795663,-0.00221126732509317,-0.007487406588002655,2.079906812964709,-0.5838734193755757,-1.204681290914481
26928,2.925,0.9979751146010902,0.0062054690162355155,0.001785287364254083,-0.06327697480330045,0.009831655120704871,0.0909100570872257,9.739581120253485,0.007320284384257675,0.001914055132432475,-0.008186248668085426,2.0915266897882914,-0.5896050452800196,-1.1911132271434426
26929,2.933,0.9979749607775749,0.006201997315059281,0.0017885151286085245,-0.06327964999853428,-0.00662827165900342,0.1040897547981349,9.760447504548551,0.00939938719772589,0.0013440460167849196,-0.00913741515963748,2.0887150510372985,-0.587072601456593,-1.2072722642224951
26930,2.942,0.9979750032083949,0.0062037654085933085,0.0017977307707880345,-0.0632785463647493,0.010039122480432563,0.026904666728481325,9.738073212351587,0.010447674210481534,0.0026687069175113983,-0.00831031755823217,2.091110653084193,-0.5774912805785121,-1.2009976128287325
26931,2.950,0.9979746699064482,0.0061955951558752605,0.0017957118222302825,-0.06328466042282528,-0.005179667850532371,0.054392164807807834,9.710246775856197,0.008349451583085126,1.8729465361131757e-05,-0.009963021337506504,2.0798926377704876,-0.5823900983725909,-1.20274221321013
26932,2.958,0.9979750018092508,0.006190535624707703,0.0017945135405916116,-0.06327995538603223,0.001494695800595875,0.06737063634390122,9.74924595313333,0.009037596678588134,0.00013592268540044147,-0.007358974862074879,2.0906102992876052,-0.571615944298612,-1.1993479488508119
26933,2.967,0.9979744084568388,0.006204837189138581,0.001823274240785251,-0.0632870897713145,0.024708912747757595,0.002562651147643483,9.765896141897748,0.01326291233907831,0.007733465736479106,-0.010210097347226449,2.0874472127759445,-0.5723622406186675,-1.2008289348414125
26934,2.975,0.9979752231293418,0.006199706076801901,0.001804277117753334,-0.06327528939945233,0.032460137554012926,0.029978160580236925,9.756199204650507,0.00934762313266511,-0.004174233545640759,-0.005581150503483539,2.0935374630818293,-0.5811346816260905,-1.198992013452112
26935,2.983,0.9979754591798001,0.006209546636695337,0.0017918388946685895,-0.06327095478028978,0.04061262967233325,0.05737504181141474,9.746495854003136,0.012834567122563131,-0.0022116973990220726,-0.007482225947922125,2.0845494214927927,-0.5767982961719326,-1.2052028456166506
26936,2.992,0.9979760843788137,0.006195956077219523,0.0017936485030906012,-0.06326237397749396,0.017661630884797788,0.05839514307578972,9.728356489005584,0.006956504748353885,0.0007049667203098813,-0.006406519826083528,2.088184765574173,-0.5752987498039769,-1.201528135905508
26937,3.000,0.9979766004002406,0.006195306974973442,0.001797220131752542,-0.06325419531432432,0.07991686793607264,0.04615801748538264,9.743758187149153,0.010083590399927475,0.0014602983813698646,-0.006530585095165235,2.090811145322019,-0.5781518142551502,-1.1934246279192446
26938,3.008,0.9979764499508939,0.006194047390689245,0.0017881340786689189,-0.06325694979091764,0.04058770241454554,0.05969620985590645,9.746482015490743,0.010065209185444887,-0.0017604001611945576,-0.009133375091031098,2.0815802967476955,-0.5804092464895693,-1.1998187859917004
26939,3.017,0.9979768013877975,0.006190673709357653,0.0017733802666799346,-0.06325215073999835,0.001436452642895715,0.07321436619565615,9.749203828834407,0.00970519350812587,-0.0029676296890047836,-0.0073557898242471486,2.085953193627304,-0.5818462093069228,-1.1968432773446538
26940,3.025,0.9979768461820375,0.006194212591373328,0.001769335919846902,-0.06325121078153147,0.02457924809815401,0.07385778293380166,9.76733122950511,0.011112247001192453,-0.00043533196274769316,-0.008306277646666718,2.0850429249097395,-0.5785141572499649,-1.2059154206052862
26941,3.033,0.9979755507512443,0.006191687844240947,0.001764020940218164,-0.06327204228182245,0.009491669533016986,0.10139879751110689,9.73947790749796,0.009733396197423763,-0.0006728699029102876,-0.013512205987143852,2.086477543692464,-0.5762775861990799,-1.2017754804292198
26942,3.042,0.9979750465920391,0.006180981844146755,0.0017440324977629862,-0.06328159443082067,-0.02120279841947879,0.07582118068497279,9.731052109180398,0.007966281028443174,-0.004412393035765239,-0.010783382533911484,2.090937530506335,-0.5829548486217931,-1.2107133288170766
26943,3.050,0.9979752834160663,0.006190801670449369,0.0017315949283519775,-0.06327724112430265,-0.04515117095964917,0.06267977337568073,9.76162236544251,0.012829661149478434,-0.002211945517153727,-0.007477894306628288,2.0884573686731582,-0.5765564844597587,-1.2054207315578627
26944,3.058,0.9979750640095909,0.006169628730622613,0.0017275471780800434,-0.06328287981063639,-0.03657852475409474,0.024410036523354862,9.750480064862604,0.005215231374764928,-0.0007410321730442626,-0.00983335855460526,2.089464175629025,-0.5775724074033667,-1.2095544140927423
26945,3.067,0.997974551842563,0.006156732662168234,0.0017202653095896845,-0.0632924103256241,-0.08371639375565715,0.011117863710854166,9.762925483498966,0.007293095454940758,-0.0013109193313108358,-0.010782973495030863,2.085978788118077,-0.5730899936644704,-1.2003444432290125
26946,3.075,0.9979740928919453,0.006161886512735295,0.0017209681282898677,-0.06329912590079682,-0.06736005078333951,-0.0006351685314708311,9.742068359237422,0.011466771570014805,0.000771058888313238,-0.01008071661888984,2.079427823624085,-0.5787582868714204,-1.2059541505771834
26947,3.083,0.9979741358316441,0.006165031422566505,0.0017163584029538496,-0.06329826784734785,-0.08371001580106051,0.012785606536561508,9.762923498476543,0.011107611604022058,-0.00043562112019897336,-0.008303032383090356,2.098666114659438,-0.580404610671006,-1.199205611649056
26948,3.092,0.9979736212098649,0.0061524405222964235,0.0017096531643670794,-0.06330778728519211,-0.06849646170600349,-0.01313931611865139,9.790782991285234,0.007291413050426378,-0.0013118981050065346,-0.01078140881052855,2.089260765558422,-0.582264182124495,-1.2151269909476838
26949,3.100,0.99797401030459,0.006162984817859082,0.0017286221550096158,-0.06330011248137547,-0.04445481765634173,0.0016447595401457194,9.760199911160926,0.012530008994783433,0.005318727171603699,-0.006652515550672847,2.083089597933712,-0.5821761015717957,-1.2058949303973927
26950,3.108,0.9979748451340668,0.006156055076264645,0.00172218451454084,-0.0632877993457788,-0.013142281499508785,-0.036666893854622205,9.767212232578627,0.008669926624050575,-0.001072545286691328,-0.005574859877529142,2.0884088115042214,-0.5818647525811753,-1.1987784152551677
26951,3.117,0.9979747085504943,0.006154501290217426,0.0017123213792602857,-0.06329037180266218,-0.01363908987606177,0.029586793482147197,9.768597550442141,0.010057697291326268,-0.0017624977405911756,-0.009126598046028039,2.0889546107458687,-0.5758356851418003,-1.2066447312171034
26952,3.125,0.9979748463335677,0.006142746407739279,0.00171907205539326,-0.06328915818156028,0.02689547718515397,0.031757801124287936,9.717159225848903,0.007307109829438906,0.0019091285653679206,-0.008179119583756172,2.090128627302056,-0.5794373638223108,-1.2002538395054434
26953,3.133,0.9979745813996623,0.006152409258915799,0.0017246047698002448,-0.06329224659362148,0.0412582677177043,0.07140408044857915,9.746400459729402,0.012509662695737637,0.0020960354902826396,-0.009251522810292902,2.080803296202468,-0.5801071691360749,-1.193723380438532
26954,3.142,0.99797442857927,0.006149256470386639,0.001728595404971708,-0.06329485369812707,0.04111326518213711,0.07229632429566582,9.746394492859501,0.009383735771156561,0.001339010315318002,-0.009127378445400416,2.088250406331947,-0.5809994937408685,-1.210507380063042
26955,3.150,0.9979742927095381,0.006147694157825491,0.0017187301698333931,-0.0632974163299161,0.06413507959563422,0.07293480768416385,9.764521864395087,0.010055690996016272,-0.0017631951223501486,-0.009124245392043406,2.0875073811029137,-0.5797649381779022,-1.2090595847718333
26956,3.158,0.9979735403277085,0.006159429060055196,0.0017293801809613527,-0.06330784693562007,0.0737473608129953,0.04899383690307942,9.704691749285667,0.012864697355291837,0.0033013250138291352,-0.011026974240614273,2.0889560225829147,-0.5812088547231005,-1.2068378616739739
26957,3.167,0.9979741879316427,0.006147513355289045,0.0017175544784815786,-0.06329911775324099,0.06402425592617807,0.07471078818306985,9.764509163548915,0.007619794849264135,-0.002399609906566032,-0.00639721671295108,2.0861851404715055,-0.5774356507557548,-1.1951743522192573
26958,3.175,0.9979736434793919,0.006130957383016984,0.0017370593477695924,-0.06330877432756553,0.0717669793730064,0.10175586350469551,9.754756751207472,0.005940989852819241,0.004888631892680516,-0.010782537943908542,2.0811457192617233,-0.5782816171749174,-1.2071669089501083
26959,3.183,0.9979744712704632,0.006123727438969935,0.0017304880105972413,-0.0632966039052504,0.057096526289546104,0.063492204857052,9.725525807469548,0.00866651548658118,-0.001072806430977294,-0.0055711305091081745,2.085007097209769,-0.580420836035977,-1.2010144158553735
26960,3.192,0.9979740275443832,0.00612897525785993,0.0017311372120268308,-0.06330307396236888,0.009899603511593075,0.050477929252458684,9.737979693923347,0.01145747361252904,0.0007683862990207374,-0.010073259557877235,2.0906075827544703,-0.585040755569377,-1.1989763441480425
26961,3.200,0.997973892632158,0.006127400223528024,0.0017212688475916308,-0.06330562237806558,0.016595046658542372,0.06373277449446971,9.776949103859184,0.010052702362420602,-0.001764152259586199,-0.009120871604328267,2.0840771978112835,-0.577063286976922,-1.207401205031891
26962,3.208,0.9979728946532482,0.006116658607588388,0.001719401842054235,-0.06332244216864208,-0.037195235948452726,0.03823085409575017,9.75043333737275,0.007641609193019476,-0.00011121252638423047,-0.012551322307237035,2.086038854780417,-0.5819574689524375,-1.2085611860753371
26963,3.217,0.9979722707922491,0.006116916598367665,0.001714422454586598,-0.06333238363379119,-0.045010501274792836,0.012472353256506882,9.76018953169583,0.01040817366950946,-0.0005590694909899532,-0.01089677521702875,2.0918484430998916,-0.5770099750634462,-1.2017292637557189
26964,3.225,0.9979722462334374,0.006102426491808194,0.001702732939638853,-0.06333448380808665,-0.04488626359753053,0.0131736060805385,9.760189181014407,0.006927085310619888,-0.002522104837498168,-0.008996252883148412,2.0909039279604524,-0.5785164751592465,-1.2061167111968025
26965,3.233,0.9979707262800209,0.006126211862272924,0.0017020334306854135,-0.06335615280734502,-0.04599695398665066,8.388467563412463e-06,9.808921679287726,0.015963550767680208,0.0008339425053781835,-0.01374355664495341,2.089196604414113,-0.5809600892830821,-1.206350148636418
26966,3.242,0.9979705741663325,0.006122921766370361,0.0017057314478548262,-0.06335876740745026,-0.0757500391717756,-0.01124406131347308,9.751818887307053,0.0093758168132764,0.0013370252724326439,-0.009122181917494903,2.084760737953874,-0.5867658882845357,-1.2007118134135284
26967,3.250,0.9979713881539637,0.006113694133889642,0.0017122371920733927,-0.06334666063721288,-0.02085961181618567,0.029798920275758832,9.729582544304769,0.007989132803176896,0.0020288686216345868,-0.005572188880312834,2.094756027045509,-0.5857708265244617,-1.198694927814952
26968,3.258,0.9979722153934923,0.006105013641076887,0.001719551594366479,-0.0633342660284464,-0.01437381030214614,0.042852622390806436,9.768547309199757,0.007988800059330791,0.002028771651116226,-0.005571923943911959,2.0876950347011993,-0.5706579690870428,-1.2013316212821763
26969,3.267,0.9979722465384304,0.0061061225642780916,0.0017280126299538021,-0.0633334380767299,0.0017916375064177335,0.031081418331972057,9.747712268894748,0.010421030441384888,0.002663953547671468,-0.008296090599050279,2.0850091190345963,-0.5770053392448832,-1.2012909888168202
26970,3.275,0.9979722583365661,0.006107387504142682,0.0017370885975565014,-0.06333288191527355,0.025759241948159435,0.045894176129821385,9.717105822380942,0.010420410344616627,0.0026637728344401554,-0.008295596862392163,2.091622629506592,-0.5701975247555108,-1.2042371791548527
26971,3.283,0.997972109443679,0.006103806442021298,0.0017402910153578603,-0.06333548536669616,0.0014082737257743855,0.03273206010889991,9.74770692811071,0.009373385462382134,0.001335941854676246,-0.009119923430998985,2.089155948159329,-0.5752917960761322,-1.200788627858667
26972,3.292,0.9979715305852224,0.0061220298989721296,0.0017435540233560606,-0.06334275736556817,0.03283836404146529,-0.005402282406269372,9.75479080566915,0.014571799335574266,0.0015245780299271594,-0.010188903181541517,2.0869622257372584,-0.5765170800019722,-1.201281347009172
26973,3.300,0.9979731111626601,0.006100470103602365,0.001761179022734265,-0.0633194433747373,0.040414894496948496,0.0218756924305728,9.745011717774544,0.00488008567181263,0.00449496265220278,-0.0028514698582026853,2.0886710288970627,-0.5784701169736154,-1.2012503114158244
26974,3.308,0.9979729548583143,0.006097163670898711,0.0017650222710576876,-0.06332211827567139,-0.023380412107061398,0.021111218253451917,9.778305220842704,0.009371922029168627,0.0013352399816093485,-0.00911850703231297,2.0964723414050517,-0.5823622834612123,-1.199691377257513
26975,3.317,0.9979712415077009,0.006114242670703506,0.0017721299367621924,-0.06334727078279723,0.023648121403353352,0.03594218153003317,9.765832963122708,0.014234501264658401,0.002604666498937293,-0.014565318847444234,2.088123919483001,-0.5776612371029578,-1.1932047720811139
26976,3.325,0.9979711043425086,0.006113057410204637,0.0017632780793829794,-0.06334979302972192,-0.01576462061198847,0.0495425679900485,9.768513526434397,0.010045220969795505,-0.0017667309523453467,-0.009111715964758642,2.0899257086105005,-0.5770493795212326,-1.205893633933516
26977,3.333,0.9979714456220733,0.0061076294989847015,0.0017615919530465421,-0.06334498700515855,-0.007145651750215457,0.011308198796317705,9.757477676558816,0.009014575555210012,0.00013057209424793188,-0.0073400894623655046,2.0901070256286216,-0.5820949747469414,-1.1972988660019297
26978,3.342,0.9979711815169936,0.006117548955825783,0.001767780859983301,-0.0633480181787938,-0.047361063678200956,0.09028102579248796,9.761395640426981,0.012491020979071314,0.0020931559846356315,-0.009238469671458886,2.090704375154349,-0.5790626821341963,-1.2122169376537948
26979,3.350,0.9979714098855637,0.006125300133522794,0.001768422468277502,-0.06334365344112323,-0.03111775909960392,0.07875326698317435,9.740567529661124,0.012135230130344723,0.0008890255426341741,-0.007460951179925908,2.0896835285571016,-0.5746104012159603,-1.2061627201933585
26980,3.358,0.9979708466366466,0.0061435201641253144,0.0017712679832254548,-0.06335068297232357,-0.00040725851168371696,0.10624515683953346,9.74889991565351,0.01456514390047204,0.0015231875175725853,-0.01018343940369571,2.0908389873873103,-0.5884423449047816,-1.197233247907467
26981,3.367,0.9979705028835385,0.0061332421368203195,0.0017822766251741117,-0.06335678499814056,-0.023610541780589734,0.10721663070885717,9.730751291178331,0.007646233314625066,0.003106491834299742,-0.00994582035487911,2.0955214672650193,-0.5726295493329385,-1.2032089532824424
26982,3.375,0.9979709717921914,0.006117008499595778,0.0017660354832296794,-0.06335142291880383,-0.02359291507451869,0.10779117467599046,9.730744986108268,0.006566142827283955,-0.0037307677013353386,-0.007209546315655504,2.0823164207647733,-0.5782167157150337,-1.2003225387515766
26983,3.383,0.9979708244626576,0.00611339640974668,0.0017692294714643528,-0.06335400328896797,0.03108316158732183,0.06929687574041322,9.756003641009913,0.009366063389903447,0.0013332367647085814,-0.009114320043398624,2.080338871770482,-0.5708603763414302,-1.1969886282946207
26984,3.392,0.9979698836306041,0.00612034434983081,0.0017749218077691082,-0.06336799195125668,0.00013706015316216255,0.043737142081172325,9.747663863734067,0.011795368647249433,0.001967178343086854,-0.011836458405711913,2.0828347392436606,-0.582406323737562,-1.2044296586465013
26985,3.400,0.9979704060307474,0.006119580241254058,0.0017784943453802106,-0.06335973786530148,0.016372180377183874,0.0320955278046632,9.726848739801312,0.01005585627390318,0.0014581138595487683,-0.006512154409393076,2.0876941874959463,-0.5828644501598124,-1.2012157289147094
26986,3.408,0.9979700909412081,0.006111719029752954,0.0017768642171529462,-0.0633655050548221,-0.00786385509657747,0.018888606250132726,9.757465394143361,0.008318895739233648,3.888353521055438e-06,-0.009937074179177718,2.088206231694766,-0.5745941758509894,-1.204464566630227
26987,3.417,0.9979706135311419,0.006110950631696197,0.0017804367263358643,-0.06335724785466156,-0.007924607193271396,0.01963506997599243,9.757463872389001,0.010054809879334178,0.0014580168741022564,-0.006511419457651416,2.0921799043534315,-0.5788324599684302,-1.2136732859657196
26988,3.425,0.9979706373120819,0.006112151712385986,0.0017891479628394807,-0.0633565120088632,0.0004946744986836071,-0.018546040972653475,9.746467495528208,0.010408348630107783,0.002661034644134492,-0.008287853648815305,2.092578959133324,-0.578472434882897,-1.201465879509687
26989,3.433,0.9979706874771983,0.006115196573376921,0.0017845261492160768,-0.06335555834794693,-0.015976027674285256,-0.005141660883054652,9.767275481547783,0.011083783671522516,-0.00044044018152382484,-0.00827989776089262,2.089409908811812,-0.5880004438475019,-1.2021310537000438
26990,3.442,0.9979715279025211,0.0061083874555942,0.0017786679352913336,-0.06334314042559527,-0.023703517092280666,-0.030820355178075486,9.777093600596949,0.008654255604125744,-0.0010742826908976028,-0.005557447047656064,2.087667503106124,-0.5816090334133122,-1.1975654716731177
26991,3.450,0.9979713984403898,0.0061067479299010945,0.0017687815731343443,-0.06334561497373178,-0.022420892841009375,-0.016073477320511582,9.728332213296815,0.010037580961676505,-0.0017698188605745984,-0.009103075583094354,2.092593269880386,-0.5780027189142386,-1.203423499992833
26992,3.458,0.9979720981464013,0.006111012675240671,0.0017783745405164828,-0.0633339105799321,0.007166275389328774,-0.002756437793536278,9.78541638344319,0.01109707010358629,0.002786576813519916,-0.005685690137850656,2.0852726465998535,-0.5804486509473556,-1.203942108350251
26993,3.467,0.9979726380626283,0.0061122238307931035,0.001768870869838802,-0.06332555166760867,-0.0003161207346143469,0.05112674118991107,9.747627901140287,0.010727925006766122,-0.0016439571339985299,-0.00650114719010493,2.083278578648516,-0.5796629501695137,-1.1983485081278598
26994,3.475,0.9979729836110915,0.006107120650828408,0.0017676927022451615,-0.06332063109479684,0.04691636071046567,0.06584178629291562,9.735135326037277,0.009006151727834328,0.000127929465384399,-0.007332868772154043,2.0871761401227396,-0.574768768193998,-1.1971456945773737
26995,3.483,0.9979732142159057,0.006114829952644837,0.0017683322370585974,-0.06331623459527723,0.03164715412128061,0.09320832750441692,9.70716093747538,0.012125185461989058,0.0008876820878183938,-0.007453279498342338,2.0874686450083275,-0.5721459259085907,-1.2037607298714328
26996,3.492,0.9979735530191363,0.006111505101520261,0.0017542237601250196,-0.06331160777262834,0.015339233917242436,0.10662957371168803,9.727951314340599,0.009681672500022217,-0.0029736630507966612,-0.0073234853300268715,2.08912894183151,-0.5786748421372843,-1.1970943315174378
26997,3.500,0.9979726089607374,0.006116181154777242,0.0017724281798158132,-0.06332552874258765,0.030473633446325542,0.0809741261776431,9.755915633362383,0.011108868403764379,0.005064035937879496,-0.011838682642017139,2.092339789139171,-0.5840943699042156,-1.2021467230041132
26998,3.508,0.997972481983532,0.006114964851174839,0.0017633577824063872,-0.06332790046914155,0.013943608162152793,0.0943744013119042,9.776705482393526,0.01003393151236107,-0.001771518240664784,-0.00909912113042864,2.0908483679149295,-0.5818624346718937,-1.1985164452786785
26999,3.517,0.9979727300589281,0.00612465787076997,0.0017509230850670991,-0.06332339925372679,-0.016679873507250496,0.06884157688149412,9.768395065732225,0.012799250677096679,-0.0022137653291343373,-0.007442264967396952,2.0874255941584052,-0.5752639811647535,-1.1978716434905496
27000,3.525,0.9979726908989324,0.006108193934436601,0.0017526086535991612,-0.0633255600031399,-0.00022734850211109673,0.057075685487150044,9.747594883560684,0.006236974643498017,0.0005688169241667442,-0.00898678295360553,2.0909145847722757,-0.579262771479302,-1.2075744962460897
27001,3.533,0.9979732147396203,0.006107392566390315,0.0017561781922444666,-0.06331728244693698,-0.008083505892078666,0.03125955251405724,9.757433425526422,0.010046978344959965,0.0014566143581040396,-0.006506473230447896,2.088610267526416,-0.5796119561653194,-1.1929385368281769
27002,3.542,0.9979729705068484,0.006119260129231892,0.0017493515719028115,-0.0633201750020215,-0.03110919644210291,0.03220711265906292,9.73929054832509,0.01315030713094336,-0.0010119524701922178,-0.00921744065338539,2.0871720117525596,-0.5828204098834628,-1.196580959417734
27003,3.550,0.9979739835395364,0.0061166337008891625,0.0017480436875120277,-0.06330449678866344,-0.014687525566123925,0.0205904301400242,9.718496106676016,0.009693210272323742,0.0002543931035216711,-0.004728793623278739,2.092149735469422,-0.5763517592960898,-1.2095463717637627
27004,3.558,0.9979751233423427,0.006103150286757102,0.0017318784421641766,-0.0632882717687485,0.03145912175931551,0.021276530032586873,9.754773639380701,0.007251705056155427,-0.003607290245190615,-0.004598425839829624,2.0872327222908913,-0.582410959556125,-1.2048857804633333
27005,3.567,0.9979755178420238,0.006113511400043893,0.001750857604660474,-0.06328052831601588,0.015859450712269726,-0.030871205461233744,9.774475337282935,0.012485802191564074,0.005317607783886402,-0.0066354677815136974,2.087182922725959,-0.5799047618816875,-1.1980735121772612
27006,3.575,0.9979753945450054,0.0061122347870240295,0.0017415275521368997,-0.06328285352632607,0.024632504744316084,0.010446870254760548,9.715842318595541,0.01002982350731501,-0.0017735347314594434,-0.00909498088362662,2.092329488153554,-0.5782213515335969,-1.2007376127491618
27007,3.583,0.99797621071353,0.006102927504136577,0.00174802445056788,-0.06327070045655989,0.007074359500488638,0.009800979979802251,9.785411928476572,0.00797001157380795,0.0020251374628090053,-0.00556100908365759,2.083542411207665,-0.5787119286857891,-1.2010413489135787
27008,3.592,0.9979771217509639,0.006115760015319316,0.0017366133141389973,-0.06325540384263366,0.02374786998182442,0.07754195348185809,9.716909935761219,0.013486354497514137,-0.002086240204403965,-0.004836835248223372,2.0901321287403487,-0.5804185181266955,-1.200732814313158
27009,3.600,0.997977174415984,0.0061187569226192895,0.00173198024508482,-0.06325441014539135,0.03909300358484648,0.05207818116302897,9.744902510178195,0.011072275577368666,-0.00044425618754325504,-0.008270273404314866,2.0908893969400246,-0.582159876206825,-1.2041289586981152
