packet_counter,timestamp_s,q_w,q_x,q_y,q_z,acc_x,acc_y,acc_z,gyr_x,gyr_y,gyr_z,mag_x,mag_y,mag_z
21988,0.000,0.9999999613714301,-2.0724792904184574e-05,-9.948401168002237e-05,0.0002587093985493372,-0.03345999014144506,-0.16407886454899365,9.776219667452786,0.011356010118885193,-0.0006880844124464643,-0.007059928742442637,0.6257735085567937,-0.3911485405587555,-1.5307161522107806
21989,0.008,0.9999999632696628,-2.5052178335061806e-05,-9.767734278201545e-05,0.0002515794066719456,-0.02783086517202807,-0.0933213020763349,9.761178477759172,0.00882248579405178,0.0013862093373278525,-0.009552080712102394,0.6186749345930959,-0.3907573653538481,-1.538028288340123
21990,0.017,0.9999999573795015,-2.3437278901908573e-05,-9.925871408797829e-05,0.00027356790120002,-0.048186204608555716,-0.13861299859366147,9.767637413720724,0.010213496299996624,0.0005348626218980742,-0.0025931346710076453,0.6235493505958373,-0.3983703562473174,-1.5413579835519182
21991,0.025,0.9999999615244387,-2.4141069571601624e-05,-9.672211611293966e-05,0.0002588690065095927,-0.02666701233217327,-0.1313034988253337,9.748954339937026,0.00964770023681508,0.0016350125932109005,-0.011385990144859071,0.6208962704387909,-0.3913635407944127,-1.528503515317681
21992,0.033,0.999999958501508,-3.0363412715600272e-05,-0.00010800224245150485,0.00026534988437040293,0.008265096017683828,-0.1083777981339088,9.751117745100428,0.008340983307776691,-0.0017426683174627637,-0.006350099127749048,0.6257611084417843,-0.38926029585240257,-1.5356244037672782
21993,0.042,0.9999999598576266,-2.7579921632409368e-05,-0.00010996912323104976,0.00025967457538056616,-0.011949230563017743,-0.15367869388824798,9.757588782157734,0.010501004622432307,0.00047450281812048885,-0.009221761696882009,0.6179628918711816,-0.39138295342761603,-1.5299608242719982
21994,0.050,0.999999961140794,-2.270815002001976e-05,-0.00010495734415021454,0.000257267771605766,-0.02669190660546405,-0.12893928493856682,9.748985828287829,0.01100974543458979,0.0021945746016420894,-0.008424585012932051,0.6147812443047378,-0.39703975539852054,-1.533051930424361
21995,0.058,0.9999999579874587,-2.448946984427767e-05,-0.00010185433758711686,0.0002702795616344148,-0.01219635312750468,-0.15197757875819365,9.75761511949713,0.009358509997999474,0.0016976485201378982,-0.0047556203785253815,0.6184425781260476,-0.39264884549906826,-1.5333635383996893
21996,0.067,0.9999999593506806,-2.3872357240619862e-05,-0.00011126085373072033,0.00026143789107101943,-0.01353890383778437,-0.1116258955617997,9.76984978139084,0.00999143911320944,-0.0012447043004887846,-0.010017235656062426,0.6174696701160606,-0.3911647177530917,-1.531915773371116
21997,0.075,0.999999960618856,-1.8920468353477385e-05,-0.00010623785140769674,0.0002590710743894561,-0.03382984073472349,-0.15684223031147032,9.77633717121748,0.01100884741069915,0.002195433628951615,-0.008423682413282431,0.6255183165032336,-0.3926714935711389,-1.5350902541645293
21998,0.083,0.9999999617389833,-1.1927707114801184e-05,-9.401060811063595e-05,0.0002598879903364561,-0.055085116218416726,-0.11741469345605801,9.719562382593764,0.011517331881534294,0.003915725028014876,-0.007626773377227692,0.6143013291799378,-0.3889385261341268,-1.5297398082958462
21999,0.092,0.9999998729295906,-2.7351298522033132e-05,-0.00012205895690691737,0.000488358802569253,-0.013775974220396961,-0.10903429183488043,9.769878716587758,0.00868571041755766,-0.004621489482530983,-0.0049800532335262425,0.6208780499585969,-0.3814484819176122,-1.5357156016737374
22000,0.100,0.999999878874136,-2.3955802019194357e-05,-0.00010511967380923208,0.00048023711559944294,-0.0207304644597727,-0.13860589907220855,9.797214758165653,0.010662350435650335,0.0050764395349189965,-0.009790353390580427,0.6186829930330666,-0.39193590057588507,-1.534838571914108
22001,0.108,0.9999998784256715,-2.966933094844264e-05,-9.721758211106828e-05,0.00048251125820196776,-0.042066858406090125,-0.09933054595659398,9.740426407009315,0.008502863893496778,0.002859615860858717,-0.006918104165226736,0.624776662270754,-0.3932082635250717,-1.5387437090325335
22002,0.117,0.9999998777787676,-3.2481718498404324e-05,-0.00010755849296868122,0.0004814753970916069,-0.034399042032999615,-0.1528238200814986,9.776398825394574,0.009165207038662065,-0.0014920394942822177,-0.008180454517875038,0.6272129960572691,-0.38932824006861444,-1.5407545910439127
22003,0.125,0.9999998740405965,-3.105216796967172e-05,-0.00010326631830484376,0.0004901944730124114,-0.034408260073876096,-0.15203782726433954,9.776411048504364,0.010181952043152321,0.0019486358382539552,-0.006587785833487655,0.6155049396226621,-0.39439974050257764,-1.5365070281990687
22004,0.133,0.9999998772686833,-3.0446540551725312e-05,-0.00011267007872636777,0.00048149878488621875,-0.02749065481532047,-0.12086698581390365,9.749087029035397,0.009990071113986448,-0.001243159062032927,-0.010013672796176409,0.6262500457393501,-0.3904776563408463,-1.5353653417988484
22005,0.142,0.9999998785585442,-2.552714120394779e-05,-0.00010758043813615637,0.0004802683741786799,-0.01285852194406158,-0.14386354105202398,9.757737274338925,0.011006509915133262,0.0021977907524444976,-0.008421203969102413,0.6220930313921256,-0.3949073915067054,-1.537981921119728
22006,0.150,0.9999998772898668,-3.110160176200025e-05,-9.971763723472935e-05,0.0004842616388236717,-0.027718020991219634,-0.11922551327408452,9.749106597045602,0.008501484247832444,0.0028607624255119445,-0.006917142332589557,0.6184380893203374,-0.38754499067643267,-1.5351403112439281
22007,0.158,0.9999998804881585,-4.024703187170628e-05,-8.711111868521538e-05,0.00047939075754590416,-2.4761581203616463e-05,-0.12668397970493642,9.778588642768112,0.007646739435747905,0.004020507330429104,-0.009080966367707818,0.6169703872601805,-0.39415238587824825,-1.5362698459632684
22008,0.167,0.9999998704137408,-4.077435281362939e-05,-9.587719891931925e-05,0.0004983146762104041,-0.03502872130721726,-0.14821301775897955,9.776467577937034,0.009702115918786699,-0.001178081558334686,-0.003384221797377962,0.6147511178368212,-0.381571428594567,-1.5449766813586372
22009,0.175,0.9999998745793854,-3.820764144982057e-05,-9.826637391323537e-05,0.0004896173094409737,-0.04136304373093245,-0.13278530296173663,9.72830356820626,0.010497455057356012,0.00047831532890840316,-0.00921569361804749,0.6186574371101223,-0.384012620449189,-1.5449541957187252
22010,0.183,0.999999875497693,-2.63597674441036e-05,-9.701101468345959e-05,0.0004887725691883008,-0.028127710099084022,-0.11610939833951624,9.749143036029434,0.012684890418953853,0.0012883895977141057,-0.008089102227664138,0.6138075070364893,-0.3892117642693941,-1.5319324049442882
22011,0.192,0.9999998756514826,-2.7238314680445112e-05,-0.00010027497791591922,0.00048774995892775355,-0.026808318499765706,-0.15478267064559628,9.736980696341446,0.009671938769596416,0.00023042089831983148,-0.007381195374643247,0.6184379667114446,-0.38388320289449973,-1.5351888426720584
22012,0.200,0.9999998742417295,-2.7935879227152458e-05,-0.00010339345418715329,0.0004899447985001306,-0.03511614542032139,-0.1447559357164253,9.776519062861874,0.009671723754024125,0.0002306589035919567,-0.007380903195395738,0.6240409873997714,-0.38809793782470176,-1.5400303946929235
22013,0.208,0.9999998732850679,-2.8824819968408483e-05,-0.00010643762899513867,0.0004911924360743841,-0.021831828200681427,-0.12822314901507678,9.797353751687739,0.009671508773910067,0.00023089689448084372,-0.0073806110696343,0.6233124889752265,-0.39466974319897763,-1.5384764773128077
22014,0.217,0.9999998678274614,-3.2942147059462946e-05,-0.00011048904477707836,0.000501050940904478,-0.041501308539683576,-0.128633599715787,9.728358760568016,0.008846436043933975,-1.7226928677666208e-05,-0.0055467403563385,0.6213583284278642,-0.38197878099381055,-1.5388839036806465
22015,0.225,0.9999998711734958,-4.221767638561985e-05,-9.781434800838294e-05,0.0004962892434740718,-0.03528143637753666,-0.1425480741032492,9.776550908518397,0.0076443178695636774,0.004021207883967875,-0.009079857159393391,0.6179531385272687,-0.39485238904596254,-1.5338214227749387
22016,0.233,0.9999998745027421,-4.1620310434788753e-05,-0.00010720841752118093,0.00048761522272271473,0.007802181562824565,-0.12883099662601072,9.739155169850397,0.009988105611796331,-0.0012408465022573539,-0.010008467756381133,0.6155177684735487,-0.39067000850443284,-1.5314290730926297
22017,0.242,0.9999998740047874,-4.4317311454926576e-05,-0.00011756672959805899,0.000486008692339633,-0.03526147124308842,-0.14105516208846958,9.776572634471412,0.009163064906096011,-0.001488883247879801,-0.008174616745182781,0.619653213402326,-0.38684175206985116,-1.5373501671389482
22018,0.250,0.9999998758760218,-3.948365907803777e-05,-0.00011252836093945877,0.0004837626996645056,-0.049961474463107086,-0.11640999957917046,9.767918339843296,0.011002748102277773,0.0022016051230043976,-0.008417392903732692,0.6120997370659286,-0.3884729358352731,-1.5314495568846882
22019,0.258,0.9999998795014606,-3.686654846115099e-05,-0.00011479024137547644,0.00047587931518699756,-0.022092713057712845,-0.12360068228271359,9.797412573377153,0.010494932485542265,0.0004809156049471196,-0.009212113288994562,0.6201494452730114,-0.3848467378808796,-1.534203744864668
22020,0.267,0.9999998774229505,-3.5452549258129036e-05,-0.00011068380049079458,0.0004812964754041332,-0.041848301740776334,-0.12396504795313637,9.728417884637171,0.010177486646821022,0.0019539573289118796,-0.0065833566726211995,0.6299089943552023,-0.3885408800514849,-1.536621069114389
22021,0.275,0.9999998763772773,-4.3297134406407284e-05,-0.00010975382294139205,0.00048303714827632483,-0.03558775518760188,-0.13778526538620864,9.776618082323049,0.007990088645712627,0.0011429020833618815,-0.007709251889576225,0.6203617764031678,-0.3928267946367659,-1.5467949850748868
22022,0.283,0.9999998788688461,-4.0586475560805546e-05,-0.00011192616447698017,0.0004775851390290188,-0.042023664306469234,-0.12248481559125664,9.728435878125195,0.010494269720201725,0.00048167750450744636,-0.009210991405503998,0.6164726930472015,-0.3893185337520127,-1.539995097049541
22023,0.292,0.9999998820777638,-4.0037579394769856e-05,-0.00012145054351306631,0.0004684988968082414,0.0006763624116932517,-0.1535200693908883,9.766610609848811,0.009986700184446433,-0.0012392085584237327,-0.010005436935219915,0.6213654558307449,-0.39219619695568336,-1.536062713211393
22024,0.300,0.9999998788011459,-6.028915337972503e-05,-0.0001251699792741595,0.00047232974497184843,-0.03554574549393886,-0.13559626638014868,9.776648839234698,0.00497781215345675,8.357175594930338e-05,-0.007001471600258584,0.6159924717954175,-0.3904970689740497,-1.5368041470428377
22025,0.308,0.9999998802623378,-5.330824892690438e-05,-0.00011291036450875962,0.00047316465483413487,-0.0008314750539363389,-0.11264859166368636,9.778760367239272,0.011507796743427749,0.003925227510995562,-0.007620638350393706,0.6162546032515552,-0.3935767906579086,-1.5296832694763018
22026,0.317,0.9999998789023524,-5.890508880841577e-05,-0.000105028591111247,0.00047717341296341515,-0.027657951665227536,-0.14339308658642505,9.737152709848965,0.008496134641781724,0.002865286518541511,-0.0069133182948287976,0.6230896651560839,-0.3865005697183721,-1.530038485440068
22027,0.325,0.9999998808082639,-5.403089255679845e-05,-9.98329339011601e-05,0.000474865777439493,-0.029271915682351768,-0.1030105000555408,9.7492868697664,0.011000214687168669,0.0022044816302108903,-0.008414527065875017,0.6204035673327353,-0.38821263945547463,-1.530253171152895
22028,0.333,0.9999998794003142,-5.474158598659034e-05,-0.00010293268601369133,0.00047708236049392674,-0.04953349244978017,-0.14826762864734225,9.75588264786768,0.009668583193093574,0.00023507743915522454,-0.007375653411956247,0.6159935826588844,-0.38682881031438227,-1.536364441658152
22029,0.342,0.999999873762413,-6.17277296541963e-05,-8.873902826569219e-05,0.000490703810998055,-0.01484840651828875,-0.12525729077469935,9.75799102730163,0.008177951711042323,0.004339184204553933,-0.004285178357709989,0.6203921599545114,-0.3975506418415156,-1.5347684745900514
22030,0.350,0.9999998804193045,-5.07194985706521e-05,-0.00010095197206833256,0.0004758125774093221,-0.03652858798285626,-0.13091791045193185,9.776708986701431,0.012490039275429026,-0.0018986981287615196,-0.011503446129924353,0.6228292494339521,-0.39781740909904845,-1.5364802359098084
22031,0.358,0.9999998823848623,-5.96092341561038e-05,-8.824397593874722e-05,0.0004731701613198854,-0.028286829344166278,-0.1393934939459423,9.737208981023436,0.007639261403500464,0.0040235162848116235,-0.00907704772355435,0.6240478614109395,-0.39074765903724634,-1.5373095025084724
22032,0.367,0.9999998723952955,-6.0148683099311255e-05,-9.697207224943661e-05,0.0004921259451763672,-0.001854257900355287,-0.10710175241292201,9.778822549991983,0.009699221606696931,-0.0011691120381412997,-0.0033765108645709327,0.6133056101052174,-0.38781822881169997,-1.5373211888758291
22033,0.375,0.9999998753332114,-5.7510826326308956e-05,-9.915818592603932e-05,0.00048599765488829323,-0.02836039121932859,-0.1378738125028546,9.73723040453892,0.010491904797719186,0.00048441052304953186,-0.009206893450187612,0.6240521785641994,-0.3907250109651758,-1.535600673663616
22034,0.383,0.9999998731582106,-5.6111033401937587e-05,-9.503340559692563e-05,0.0004914303267257905,-0.013746400527243687,-0.16083691469602715,9.745940944017605,0.010174040394584454,0.001958279002401337,-0.006579568663195673,0.6284466876160673,-0.39048089177971357,-1.5356150113183547
22035,0.392,0.9999998699462614,-5.469985364754715e-05,-9.058666625704022e-05,0.0004989082501220947,-0.015334519213714455,-0.12041075571521152,9.75805128431666,0.010173822169605311,0.00195852113137304,-0.0065792723436107455,0.6198890458987321,-0.39665181563248036,-1.5406390244773245
22036,0.400,0.9999998725868133,-5.200163656081216e-05,-9.274462626069019e-05,0.0004934780856825521,-0.022307031060752436,-0.14986676986965233,9.78547432061821,0.010491258344632546,0.0004850597054464219,-0.009205717603748184,0.6242989324854685,-0.3951062145480264,-1.5345665791145715
22037,0.408,0.9999998643791839,-5.1702828209385995e-05,-8.222721199613055e-05,0.0005116709067217458,-0.06513918787022777,-0.11725625930789599,9.747279346674611,0.009855607775857006,0.0034329141882099602,-0.0039520684632306955,0.6189374212197749,-0.38602203766404936,-1.5307668260805236
22038,0.417,0.9999998713090075,-4.070053412350937e-05,-9.44314688186911e-05,0.0004967978785429611,-0.028897335365213554,-0.1336480812772229,9.737287744166329,0.012488522588364527,-0.0018967876040643027,-0.011499021202393104,0.6162314652297738,-0.3841758536629704,-1.538841832226539
22039,0.425,0.9999998754902175,-5.012199328147219e-05,-8.187565016631948e-05,0.0004896975734122199,-0.01571002673182004,-0.1170207192243018,9.758091928899518,0.007636882639278039,0.004024267716743264,-0.009075758346079807,0.6149992687089744,-0.39082854500892705,-1.5433896414259363
22040,0.433,0.9999998691442685,-5.214254050586117e-05,-7.867682197230629e-05,0.0005027947480857403,-0.04245813233035154,-0.14796210953190636,9.716514872093358,0.009348531463610853,0.0017120188568126382,-0.004745214036633849,0.6199084381515909,-0.38629527579931666,-1.5329631234710313
22041,0.442,0.9999998724071116,-4.955591255664572e-05,-8.092743811488594e-05,0.0004961660224864301,-0.01601917690024453,-0.11552533753191611,9.758109245594968,0.010490202847184537,0.00048624634813326627,-0.009203747954842037,0.6213544444926934,-0.3949397458953777,-1.5404212548127758
22042,0.450,0.9999998710045516,-5.027732100412259e-05,-8.401274611907715e-05,0.0004984023771787825,-0.02929922728135931,-0.13052761209997016,9.737328870880333,0.00966595840333525,0.00023848509981878424,-0.0073708774622666205,0.6189009438719676,-0.38352761751713177,-1.5452054017725616
22043,0.458,0.9999998664342948,-5.6650326170278843e-05,-9.531188554697437e-05,0.000504814597366851,-0.01597345989689738,-0.11397590621163345,9.758127540026974,0.008335745261455158,-0.0017315354680767314,-0.006331661462469257,0.6245414628583805,-0.38388320289449973,-1.5352042624306648
22044,0.467,0.9999998649619944,-5.737367351867443e-05,-9.839536316299731e-05,0.0005070528644852989,-0.008055389572592055,-0.1673091412190162,9.794288009341225,0.00966550141252813,0.00023892557821539654,-0.007370415841498036,0.6174622611079745,-0.39095942383403626,-1.5348484296765545
22045,0.475,0.9999998685316889,-5.691219141835319e-05,-0.00010764720367963206,0.0004981061002232484,-0.05069849810292683,-0.13477269296723382,9.7560724209761,0.009983147239400594,-0.0012350862914650253,-0.00999591906659497,0.6235792927551655,-0.3899117674371084,-1.5295061862083519
22046,0.483,0.999999861349582,-5.682695722529865e-05,-9.721987752816358e-05,0.00051441210092544,-0.0012193408754227063,-0.1354215692250375,9.76687827246443,0.00985302751879778,0.0034361859531722807,-0.0039508340736092,0.6203801313578958,-0.3883355861324294,-1.5395296705964012
22047,0.492,0.9999998518635232,-6.163449078033434e-05,-0.00012020058422529012,0.0005272816518291761,-0.04386530862091709,-0.10294218356999678,9.728654166318057,0.008685587080518791,-0.00460870197068179,-0.004958288590189475,0.6211237584078089,-0.3914508976438279,-1.5350953290810427
22048,0.500,0.999999856508552,-8.485863174604829e-05,-0.00010009136105315294,0.0005193877236397056,-0.014461751287587489,-0.14997435226368108,9.746113116593335,0.004274117503435523,0.005840061779098221,-0.009740752617390462,0.6147565993793168,-0.3979015305095964,-1.5428069603950574
22049,0.508,0.9999998583743058,-7.991110724374988e-05,-9.510241207792246e-05,0.000517514361686228,-0.02950245463959742,-0.12557969391942275,9.737393327013379,0.010994082354614852,0.002210629000796439,-0.008408073218166322,0.6181854377768332,-0.39125207460250694,-1.5385088207151665
22050,0.517,0.9999998524721411,-8.405190408904603e-05,-9.911263944558609e-05,0.0005274160200041173,-0.023191960148970136,-0.13920858243587192,9.78562968938398,0.008840713777455883,-7.557524508897867e-06,-0.005536344730212521,0.6167198266607907,-0.38661704551759235,-1.5388107115218075
22051,0.525,0.9999998563010358,-8.846610448648875e-05,-9.759836143124807e-05,0.0005196597115312421,-0.036488980467038724,-0.15433212395475704,9.764859760844423,0.008807843167641357,0.0013958018274434765,-0.009533779615091446,0.6208721523363617,-0.38953676942653703,-1.5380500165959314
22052,0.533,0.9999998583394876,-8.367217860291731e-05,-9.251809690643815e-05,0.0005174556727246767,-0.001793066286599408,-0.13118771050080252,9.766935970717643,0.010993239684084284,0.002211537327055532,-0.00840715092598086,0.6166915058400686,-0.38823059081825817,-1.550020745645326
22053,0.542,0.9999998578685018,-8.666275373578553e-05,-0.00010294908281780861,0.0005159011818005016,-0.036643379284470104,-0.15271183545980274,9.76488465683496,0.009158339458217795,-0.001481436108124332,-0.008160474321384536,0.622102335170097,-0.37801140068793804,-1.5342992711865986
22054,0.550,0.9999998591171544,-7.976145195540295e-05,-9.064374260624007e-05,0.0005169018220445573,-0.036733190862849596,-0.1518737948518779,9.764897391144386,0.011498041173819643,0.003934883340173491,-0.007613752307249264,0.6191662734439719,-0.39000883060312524,-1.5368186361743972
22055,0.558,0.9999998545254984,-8.628073532338989e-05,-0.00010176623194177324,0.0005226358682232443,-0.015231439594342326,-0.14457245517170905,9.74619357239681,0.008334525255506205,-0.0017289635942164304,-0.006327604200980024,0.6160018372730843,-0.39386620598751204,-1.5330970749471287
22056,0.567,0.9999998548243375,-9.823880267139877e-05,-0.00011552693045955187,0.0005170628296724119,-0.038132679207663334,-0.1108300136160659,9.776951211716632,0.006972402317638155,-0.002296868719880616,-0.009285675595862878,0.6172057047992351,-0.38858294075675887,-1.539762535299792
22057,0.575,0.999999856570192,-9.130222067524694e-05,-0.00010330745340997731,0.0005175433027859,-0.015115017407867354,-0.14320286949221375,9.746213975551107,0.011496956785193102,0.003935924826425047,-0.007613245327736834,0.6218324722310365,-0.3835179112005301,-1.5444804480374685
22058,0.583,0.9999998588304635,-8.161904505904727e-05,-0.00010919789526857479,0.0005135690843242332,-0.0235888438818182,-0.13287958203229094,9.785716730829385,0.01216634140750708,-0.0004161461993934031,-0.008864256633735629,0.6174556731842237,-0.39685387411266854,-1.5374560818620349
22059,0.592,0.9999998668801301,-8.959831257660611e-05,-0.00010292438624267176,0.0004976127367022667,-0.01532272929335936,-0.14142740429857908,9.746239574483344,0.007948975378280449,0.002551611667349992,-0.011697096053345495,0.6252470239175842,-0.3923256145103726,-1.545837318113224
22060,0.600,0.9999998658112574,-9.73409290456056e-05,-0.00010223517575104227,0.0004984477703584684,-0.03704247388025734,-0.14727895354057347,9.764966602927164,0.007982183125148043,0.0011496970635618215,-0.007699175475753613,0.6174663575652268,-0.3843455577544863,-1.5332269574023327
22061,0.608,0.9999998685170315,-9.478333933462591e-05,-0.00010429648602038115,0.0004930560631835066,-0.00911849136121627,-0.15441759660941579,9.794498808828095,0.010485485714056959,0.0004915047793655926,-0.00919680954016576,0.6282080983958096,-0.39045177282990845,-1.5334173288703379
22062,0.617,0.9999998658989251,-8.640742070812989e-05,-0.00010388842965051015,0.000499943080481173,-0.06513339907251382,-0.1377410082301571,9.735468939654037,0.01184707516449048,0.001060797508619296,-0.006238384004014973,0.620144115343399,-0.391467074838164,-1.536313453951706
22063,0.625,0.9999998655632831,-9.831819505745587e-05,-0.00011736637065548146,0.0004954110246870246,-0.028747618421119385,-0.15423668058871812,9.72551768551667,0.006971747055051331,-0.002296121199700488,-0.009282812412317213,0.6150034959490461,-0.38812058589677234,-1.5417164022950423
22064,0.633,0.9999998623570545,-8.783703933257724e-05,-0.00010973044515336567,0.0005054995113382749,-0.015524689121195746,-0.13757994324160663,9.746294328270736,0.012351354241752262,0.0027847781844429075,-0.0054457515979883025,0.6252726897932839,-0.3851102696995452,-1.5356781724718038
22065,0.642,0.9999998582501797,-0.00010829265813756655,-0.00011341564361779016,0.0005088312216959566,-0.023981151634752035,-0.1274960637987455,9.785787395130303,0.004972938516851958,8.534346787584695e-05,-0.006992554314905441,0.6128134910396371,-0.383687615292046,-1.5388396680188035
22066,0.650,0.999999856662104,-0.00010903421880874243,-0.00011647419939742482,0.0005110979077986562,-0.028870605246437732,-0.15216357980452022,9.72554997852797,0.009661162415593578,0.0002448136338796361,-0.007363555141878979,0.622092079524971,-0.3849017403416225,-1.5383586920963592
22067,0.658,0.9999998595250297,-0.00010453863525583804,-0.00011146303366404864,0.0005075407243600974,-0.024079038396305773,-0.12606040064036414,9.785805757086935,0.010988728187085347,0.0022162228517114534,-0.008402896473632671,0.6233008854227736,-0.3981488851339258,-1.5430694310349724
22068,0.667,0.9999998579472403,-0.00010528192839139806,-0.00011451948612049883,0.0005098102608884446,-0.029050201728846228,-0.15049380245916677,9.725575425284982,0.0096607652569594,0.0002453230049093869,-0.007362857799901924,0.62795222421466,-0.3900250077974614,-1.538061432658831
22069,0.675,0.9999998556227084,-0.00010099180011230273,-0.0001283089987919056,0.0005119492352784877,-0.02254838942443647,-0.164015622823624,9.773837321890266,0.010836225300480421,-0.0023834694479250903,-0.007819931368351525,0.6208763060110974,-0.38463173764522246,-1.5364058963219154
22070,0.683,0.9999998583540309,-9.832704779031322e-05,-0.00013043111392211748,0.0005065682912994468,-0.037217170314825784,-0.13940862662777198,9.765081470893678,0.010483204673917975,0.0004936047697440801,-0.009193850458337503,0.6189041828574654,-0.3881497048465774,-1.5439233365982228
22071,0.692,0.9999998574911159,-0.0001062847459394911,-0.00012974156872533078,0.0005068416181256289,-0.0372743244801554,-0.13866002979170652,9.76509191007282,0.007979730692586342,0.0011515382413133672,-0.007696596439859163,0.6225911952106127,-0.3953438628557541,-1.5340707893408037
22072,0.700,0.9999998586553537,-8.750340407635959e-05,-0.0001321345859995773,0.0005075163820711445,-0.05208927154804865,-0.11401708290226065,9.756329738679549,0.014347673301259795,0.0004071111334310653,-0.007732238947760518,0.6196747501250685,-0.38526379659672494,-1.528825435485918
22073,0.708,0.9999998584635742,-0.00010430352473828456,-0.0001347043966930907,0.0005040320748106238,-0.002549964318973191,-0.11454309323291628,9.76714518236831,0.005794648614802349,0.0003334203014224064,-0.00882229084231773,0.6230495200869013,-0.3850020389465067,-1.545928829856386
22074,0.717,0.9999998568195674,-0.0001050526032970315,-0.0001377538337015192,0.0005063088746879505,-0.01578811516367501,-0.1298149436457183,9.746400421143074,0.009659382178599412,0.00024696053491322765,-0.007361089705385473,0.6223657246203734,-0.3818170090504491,-1.5266804505216205
22075,0.725,0.9999998548405388,-9.908400229561947e-05,-0.0001443616655653781,0.0005095693975906685,-0.028984991145708915,-0.14486633632659768,9.725661071936306,0.011339475253046715,-0.0006578558685555898,-0.0070259590101968495,0.6098999134211972,-0.3855564473651956,-1.5324593045397266
22076,0.733,0.9999998576862147,-0.00010132772481670954,-0.00013550231419103023,0.0005059637984131776,-0.045785602943671615,-0.12521038656701922,9.804622462328359,0.009305509548525664,0.0031238507033605643,-0.008735408166220256,0.6203911835655784,-0.3868126331200461,-1.5351549518523084
22077,0.742,0.9999998512515468,-9.651278109735807e-05,-0.0001361092276096462,0.0005192845515482184,-0.04399501801398391,-0.11948089960377792,9.716899994798911,0.011020476177883766,0.0008189276639267826,-0.004402631094706625,0.6223546560648384,-0.382851723691908,-1.5310616401227977
22078,0.750,0.9999998458840959,-0.00010488271562795845,-0.0001545415033140044,0.0005228272415322594,-0.03747024061552205,-0.13303093871860794,9.76516946840871,0.007827758758470076,-0.0034476299317129375,-0.007110932995678848,0.6169608828257684,-0.3866332227119285,-1.540031920344192
22079,0.758,0.9999998486132046,-0.00010033546721119133,-0.0001493568316726017,0.0005199989415125823,-0.009423824181527212,-0.14008041116787207,9.794714060933249,0.010984960375726925,0.002219597821590329,-0.008399799174790615,0.6233213149737634,-0.3819270139719349,-1.5349829435008717
22080,0.767,0.9999998542647295,-8.305819602927365e-05,-0.0001398285182177543,0.000514800778577996,-0.016052117219843655,-0.12476042851159157,9.746466004669879,0.013991567317174599,0.003286926231560916,-0.009104330066272433,0.626247983008729,-0.3841402638354308,-1.5361818181601652
22081,0.775,0.9999998526618012,-8.409289736361588e-05,-0.00014257363219608355,0.0005169888969421278,-0.03776102294085412,-0.13029471129334352,9.76520524107703,0.009657911724769892,0.00024855546274662153,-0.007358787405978551,0.6167196386604878,-0.3810023042519618,-1.5388851263782737
22082,0.783,0.9999998505133472,-8.274606464034658e-05,-0.0001383872364583247,0.000522470424874831,-0.016270223277268004,-0.1229971906236281,9.74648805117991,0.010161522768411844,0.0019728666296477955,-0.006567622331211051,0.6152506459104875,-0.38590733603327637,-1.540525545910224
22083,0.792,0.9999998538289635,-8.039552789343103e-05,-0.00014067310677481847,0.0005158388198801362,-0.03113873266313745,-0.09844158036637107,9.737700400273134,0.010480059318481668,0.0004965857483513408,-0.00918916133275643,0.6201428491753341,-0.39049706897404973,-1.53681463247869
22084,0.800,0.9999998560221955,-7.564267170021409e-05,-0.00013555262788408635,0.0005136723271058252,-0.02482647481653225,-0.11185544619180761,9.785976565750083,0.010983479003266718,0.0022210761585278425,-0.00839804441736438,0.611824842150314,-0.3910758996332565,-1.543622506129327
22085,0.808,0.999999860152268,-8.698813038550911e-05,-0.00013034931648927233,0.0005051114382155784,-0.036640979129549826,-0.1666933546413031,9.753310390520612,0.0071188068087676155,0.002305456074497957,-0.00985949282491812,0.6252797681526072,-0.39386297054864483,-1.5328763945738024
22086,0.817,0.9999998486294508,-8.545439829769639e-05,-0.00013176455819907432,0.0005273298041493271,-0.003541378907056004,-0.10392150916783767,9.767263662539019,0.01019606522396377,0.0005750255811065474,-0.002568972692839632,0.6269794061178612,-0.3912261910915691,-1.5365780779162954
22087,0.825,0.9999998513489218,-8.475260617785539e-05,-0.0001407244791754117,0.000519918985116705,-0.03828908285234835,-0.12552761607193974,9.765265627470601,0.009975694736703298,-0.0012268062600545404,-0.009978208221033562,0.6289347793075194,-0.384866150514083,-1.53569065975551
22088,0.833,0.9999998548168074,-9.401862243871128e-05,-0.00012811179701527117,0.0005148924454938534,-0.051598833173516774,-0.14075151354772203,9.74453948968965,0.007621518153119625,0.004030045556291814,-0.009068412592535963,0.6238060985965936,-0.38804940624169326,-1.5363680018064583
22089,0.842,0.999999856726624,-8.449040266724582e-05,-0.00013360386401534854,0.0005114275232004866,-0.03853139299423997,-0.12401267224660305,9.765284032017192,0.012159193614741376,-0.00040555226470522936,-0.008851020025092924,0.6125816368738022,-0.3821581914019282,-1.5339760956715498
22090,0.850,0.9999998500176637,-8.165344916589058e-05,-0.00014131040149426724,0.000522808507065795,-0.03010280318759239,-0.1325422125403939,9.725833437028642,0.010514297664629713,-0.0009002718031341137,-0.0051890910409039025,0.6199111339662448,-0.3931176712367893,-1.5318960578462224
22091,0.858,0.9999998493082841,-8.946575884108177e-05,-0.00014064617087300042,0.0005230659054686148,-0.023686754374169963,-0.14604713712360481,9.774119637490097,0.007975489239984134,0.001154697841469798,-0.007691521644101784,0.6191592196064273,-0.3819884873104123,-1.5396107077867724
22092,0.867,0.9999998530744122,-9.593089466100462e-05,-0.00014623369983433326,0.0005130927036937748,-0.025298371091150133,-0.10573600361249287,9.786043388364217,0.008294294673274378,-0.0003221526838376224,-0.010312166007635593,0.6182001413580387,-0.388244993844147,-1.5326888041038773
22093,0.875,0.9999998566090204,-0.00010047731017919199,-0.00014458092615113644,0.0005057495474496535,-0.0021714252637992973,-0.13819925675061914,9.75540814734238,0.008797207961271357,0.0014027294177494042,-0.009521690365813925,0.6230853725246027,-0.3872555753468293,-1.5317376079992984
22094,0.883,0.9999998461597555,-0.0001129646831594591,-0.00013849880728617845,0.0005251071569729081,-0.03868116800572455,-0.12035679597671424,9.765329179982984,0.006833637334028834,0.00238509663352163,-0.0032394543316649647,0.6120805528529395,-0.3866202809564596,-1.5390431109116745
22095,0.892,0.9999998521663992,-9.579850448718157e-05,-0.00012896795249364476,0.0005194777121812705,-0.03053292004768616,-0.12897337615180512,9.72588007956282,0.013986086043173383,0.003293306371688189,-0.009099165449430116,0.6225743798552287,-0.39054883599592544,-1.5407266948846616
22096,0.900,0.9999998454672577,-9.78729230714359e-05,-0.00012569415722301987,0.0005326230661166625,-0.01753316887946295,-0.1120731645678139,9.746617595114532,0.00933591596023427,0.001729753240596549,-0.00473333546734298,0.6240490540136683,-0.3895205922322009,-1.5368374428383664
22097,0.908,0.9999998429756772,-9.65327176734976e-05,-0.0001213220182978287,0.0005385267160298123,-0.02445284444543003,-0.1414690864233148,9.774185086019875,0.010157846702334307,0.001977376735603905,-0.006563615822400489,0.6179298660309533,-0.3998577194321612,-1.5430332136476048
22098,0.917,0.9999998418715637,-9.940026310136896e-05,-0.00013157818587104464,0.0005376463678107132,-0.03926221654491509,-0.11699033717923932,9.765367773024678,0.009151902182773432,-0.0014721067267424667,-0.008143004299696508,0.6201550612900408,-0.38677057241477214,-1.5319807957786593
22099,0.925,0.999999839403845,-9.300324324372465e-05,-0.000138342033714891,0.0005416679450235774,-0.05236149274135339,-0.1321234680615865,9.74465622729268,0.011335000142168825,-0.0006499065598424406,-0.00701641783271001,0.6213573074775857,-0.3883323506935622,-1.5392880193513703
22100,0.933,0.9999998428595729,-9.737533881566663e-05,-0.00013669503474631725,0.0005348956354799152,-0.0028215179887853014,-0.13254243272297145,9.755486477538696,0.008795708455586268,0.0014034826148367364,-0.00951966385985944,0.6138062980859079,-0.3899505927035152,-1.5324109354714786
22101,0.942,0.9999998354818345,-9.245376484644298e-05,-0.0001371845323232279,0.0005492440347633882,-0.011282735642624421,-0.1222584395358479,9.794950762389272,0.011015328101662676,0.0008284474755835027,-0.00439567764193287,0.6196460332641738,-0.3934717953437372,-1.5401922314452103
22102,0.950,0.9999998392914775,-9.401622487557052e-05,-0.00015373913315373862,0.0005375334849163029,-0.0391818562134559,-0.11370792989632236,9.765406868067709,0.009470455562797494,-0.0029490730462368017,-0.010761431733402773,0.6203857473749254,-0.39025942066632197,-1.5373067215103926
22103,0.958,0.9999998371331936,-9.752419880935853e-05,-0.00013852753181481893,0.0005450071005424838,-0.03762486401628527,-0.15261990952105653,9.753537018319209,0.008978183744217196,0.0046068457255499075,-0.006109681138475905,0.617702198235559,-0.39439974050257764,-1.5365125793121672
22104,0.967,0.999999835590729,-9.548544386160288e-05,-0.00015974858004280277,0.0005423849516976656,-0.024448609334412053,-0.13586062058818882,9.774264663227628,0.010328930616984913,-0.0040985226078015915,-0.00859333476947954,0.61500982678937,-0.39297061521734394,-1.539210509660121
22105,0.975,0.9999998375258023,-8.84998688348912e-05,-0.0001474846062364045,0.0005434744085375328,-0.039241634979194584,-0.11129209520583581,9.765434460383037,0.011479856574217795,0.003952263959111526,-0.007602838723371656,0.6233277684229807,-0.39043883107443955,-1.5324285194378204
22106,0.983,0.9999998398396862,-8.377332175650237e-05,-0.00014233761717044748,0.0005413341251587423,-0.024676220386547265,-0.13406112524236372,9.774288938262712,0.010977148421672927,0.0022273372060513017,-0.008391702743365712,0.6277239642048643,-0.3853026218631317,-1.5317752104441755
22107,0.992,0.9999998379325765,-8.457967364819745e-05,-0.00014495673793655112,0.0005440300028151505,-0.016385243152724452,-0.14271838708293424,9.734851933273752,0.009652794054358097,0.00025504148551935943,-0.0073503737717725524,0.6106403505291693,-0.3855143866599216,-1.5292876156274544
22108,1.000,0.9999998361590648,-8.535711285354926e-05,-0.0001479709133241688,0.0005463520986132145,-0.0032145877494509354,-0.12594865533149835,9.75557371359321,0.009652582334611779,0.00025527822829980495,-0.00735008685735727,0.6135642127967257,-0.3960438660234684,-1.5315970777483592
22109,1.008,0.9999998387347493,-8.052489499812245e-05,-0.0001429951907181236,0.0005436897936985628,-0.052868884943457636,-0.12391457511608497,9.744761330151446,0.010976264583967424,0.0022281902321469437,-0.008390821598443034,0.6254936061864032,-0.3915803151985171,-1.5448711675635618
22110,1.017,0.9999998366479089,-7.63920579826003e-05,-0.00015697622531115664,0.0005442672808045123,-0.011678686233587117,-0.11471981906576183,9.795041492303058,0.010830600541468303,-0.0023716075165097785,-0.00780105746897266,0.6206416297300014,-0.3909303048842312,-1.5326593822933579
22111,1.025,0.9999998411923846,-8.984193796002455e-05,-0.0001586538939862934,0.0005332659499984773,-0.03795530876557301,-0.14600012002908053,9.75363707356834,0.006610106431362438,0.0005814707372432708,-0.01064278285481093,0.6257759918493659,-0.39162383717421095,-1.5297332077280645
22112,1.033,0.999999839260385,-9.344002680897309e-05,-0.00014346032008560132,0.0005405250248353896,-0.010159646919020554,-0.1530414007699027,9.783208409665367,0.00897515139585296,0.004609326858048526,-0.0061086202330802334,0.6179528115702205,-0.38508762162747456,-1.5339508399166197
22113,1.042,0.9999998458327393,-8.041705856914789e-05,-0.00014810709691723227,0.0005290858932402535,-0.03832716528009532,-0.1444799922307663,9.753658258927818,0.012975290979800146,-0.00015050311681002882,-0.010670778965894372,0.6257691832296076,-0.39092706944536393,-1.5324282164841792
22114,1.050,0.9999998440839657,-8.119975050316974e-05,-0.0001511138621437449,0.000531416264236745,-0.003581066597015314,-0.12107070973297272,9.755635342605647,0.009651313042293995,0.00025702540740320495,-0.007348083673326217,0.6125954421136222,-0.3891664681252529,-1.528511663302854
22115,1.058,0.9999998381963917,-8.740958812450293e-05,-0.00016214913055553965,0.0005382140970342213,-0.06146670429791551,-0.10965311288139375,9.784261050384602,0.00832779950881402,-0.0017156524462137142,-0.006306575298889668,0.6138124000562982,-0.38796528483114523,-1.529995634835734
22116,1.067,0.9999998405640976,-8.269566910054162e-05,-0.00015698904579180756,0.0005360854833724501,-0.0035284871956458193,-0.11955570869172921,9.755654046679059,0.010974073618359616,0.0022304104481457704,-0.008388888391530057,0.6238221746069044,-0.3891858807584562,-1.5300047460971387
22117,1.075,0.9999998425403813,-7.305653450408472e-05,-0.00016266749269277869,0.0005320913851360336,-0.03832982585960246,-0.14111559472402296,9.753707504017655,0.012152702797744138,-0.00039636483057800797,-0.008839222013814128,0.6255305776614974,-0.39040971212463443,-1.530237004893246
22118,1.083,0.9999998457418176,-7.462766144385687e-05,-0.00017921055365012904,0.0005204139034194662,-0.025011670994678808,-0.12422575395707677,9.774418034536263,0.00946830248105444,-0.002946499265036577,-0.010753395564689136,0.6162407489681785,-0.3851037988218107,-1.53516711441625
22119,1.092,0.9999998481461909,-6.99718909340257e-05,-0.0001738754526378592,0.0005182459426433928,-0.016580142481118318,-0.13292377305217262,9.734990270346543,0.010972927478717065,0.00223149888015309,-0.008388094487168438,0.6169665724081336,-0.3907541299149808,-1.537779852401305
22120,1.100,0.9999998438318172,-9.027418249197875e-05,-0.0001775778677471124,0.0005221618662743847,-0.011890867841503564,-0.10672840329942863,9.795131569559421,0.0049656542143023735,8.757000242770423e-05,-0.006980784904917163,0.623076754565935,-0.38778910986189485,-1.5351487948319271
22121,1.108,0.9999998462713685,-8.559403043710582e-05,-0.00017234835293306112,0.0005200259098251801,-0.016751361866418405,-0.1316329106747869,9.735007517357555,0.010972422025477227,0.0022321411506648656,-0.008387535747820609,0.6233382692858928,-0.39087206698462096,-1.5282720356717994
22122,1.117,0.9999998486415107,-8.088803289743315e-05,-0.00016717967050116793,0.0005179044697280897,-0.012153555224493202,-0.10518390186516169,9.795147957192848,0.010972141060714412,0.002232455767799353,-0.008387155168065206,0.6213518958087113,-0.39251149579622463,-1.5414300827238285
22123,1.125,0.9999998551579288,-7.268517381615578e-05,-0.0001608878078476293,0.0005084447863008646,-0.030268334291928434,-0.14584918862635032,9.714339656351271,0.011792980976033767,0.0024799256915927236,-0.010216304870488782,0.6228595467638219,-0.3815437709151819,-1.5244878538731788
22124,1.133,0.9999998579326125,-7.216679118518231e-05,-0.0001701889912540435,0.0004999624151485679,-0.03226560224937954,-0.14953566472899615,9.802102833527416,0.009968944232987938,-0.00121912317763251,-0.009962293020198795,0.6172124398536578,-0.38708263581644614,-1.5370966454005552
22125,1.142,0.9999998615621204,-7.884043937789855e-05,-0.00017560089070338346,0.0004897185445020382,-0.017071386727396377,-0.1282014858767293,9.735052753343377,0.008287880148079378,-0.00031829356275253385,-0.010300216242407421,0.6150213322547086,-0.38656204305684944,-1.5346563810804605
22126,1.150,0.9999998502947722,-7.733860728114028e-05,-0.00017694384356836004,0.000511976609687006,-0.036954340930460336,-0.17362168514456425,9.742005582785897,0.010188587563568666,0.0005922117825305243,-0.0025592542079588393,0.6221041898608486,-0.39655798790533064,-1.533565141804589
22127,1.158,0.999999857471913,-7.405658865657685e-05,-0.00015984057728623839,0.0005040067113883023,-0.02570130476418692,-0.1170605589667527,9.774504684390202,0.010611880890854731,0.005107790533745546,-0.009765724576813076,0.6135559908782307,-0.38998294709218745,-1.5348515027452145
22128,1.167,0.9999998511122421,-7.616217587265522e-05,-0.00015652271944339663,0.0005171802928212503,-0.06713219133999747,-0.12468899796465575,9.724251803519785,0.009328433906058958,0.0017402480610589515,-0.004726463204916393,0.6255224374822645,-0.3867899850479755,-1.5334590756046813
22129,1.175,0.9999998548454767,-8.2699643980127e-05,-0.00016201767784633576,0.0005071686771489713,-0.017620323619317257,-0.12508887497616908,9.735092267726342,0.008287364372571342,-0.00031803672924674123,-0.010298757848752688,0.6235828950851309,-0.3869629245783587,-1.5280803009124078
22130,1.183,0.999999857851867,-8.501205550709497e-05,-0.0001531104290834292,0.0005036133367211019,-0.02612943191139111,-0.1148204252831478,9.774530119460549,0.009288980079953463,0.003135121488346058,-0.008723255570548373,0.6250424124047095,-0.3938273807211052,-1.5301904753129696
22131,1.192,0.999999856373099,-9.062753903194884e-05,-0.00014475672061454458,0.0005080215768743806,-0.039520661669739436,-0.1301465023820891,9.753855280261686,0.00846785899143451,0.0028883126820870362,-0.006893706153741958,0.6213537787129562,-0.3934782662214718,-1.5406847857904362
22132,1.200,0.9999998552795383,-9.843392622444085e-05,-0.00014401495405801356,0.0005089315846865254,-0.0396773871322294,-0.12948098276397135,9.753863500935909,0.007966888565387825,0.0011619730153499088,-0.007680943113288963,0.6247870486986993,-0.3902238308387825,-1.5346325212661007
22133,1.208,0.9999998574209612,-9.367326719325231e-05,-0.00013867442475517798,0.0005071023370865459,-0.018247388660642672,-0.1222257845710799,9.735127481685657,0.010969130575325935,0.0022359971858180797,-0.008383559241353769,0.6225909172971217,-0.3870438105500394,-1.5341807939112322
22134,1.217,0.9999998478375882,-0.00011037383810255339,-0.0001470281698118147,0.0005201203070658515,-0.01184554945733807,-0.13561116903142648,9.783463647048626,0.005824236737676995,-0.001058398181288225,-0.004809529164813794,0.6216038815724781,-0.3873429321962445,-1.5383251042302506
22135,1.225,0.999999849014424,-9.178453380195155e-05,-0.00014915751349516357,0.0005208634798506613,-0.018256936408882336,-0.1207290201340459,9.735146143044357,0.014330356952771402,0.0004371388309134805,-0.0077051282292651775,0.630418136816036,-0.38525732571899046,-1.5283643374482494
22136,1.233,0.9999998566880081,-9.279222416689704e-05,-0.00014655496516874063,0.0005064930487927652,-0.03989077967911035,-0.12624701572989283,9.753905025570548,0.009607525161689227,0.0016565654942879912,-0.011338073380537592,0.6242874879293282,-0.3849114466582242,-1.5390965984286817
22137,1.242,0.9999998555581248,-0.00010078456998675471,-0.00014539455776851586,0.0005075299227797056,-0.03158316505196351,-0.13511063745369192,9.71449075828039,0.007965834011182527,0.001162864388708345,-0.007679673724593379,0.6172243131456756,-0.39165942700175055,-1.5323969225365037
22138,1.250,0.9999998572124763,-8.908808343469197e-05,-0.00014392882070717413,0.0005068755612066947,-0.046788073989696775,-0.1548131960786916,9.78158233749132,0.012648559783952299,0.0013381527070676638,-0.0080429074744618,0.6189431271499929,-0.3906311832380261,-1.5285082872805527
22139,1.258,0.9999998598275247,-8.637118368320762e-05,-0.00014592645003281714,0.0005015878992732673,-0.027011722734476176,-0.10769612795845042,9.774608813256792,0.010466964139856382,0.0005109039146958521,-0.009168760207493661,0.6184154580819807,-0.3932794431801508,-1.54409827742456
22140,1.267,0.9999998587698671,-9.418469090231702e-05,-0.0001451783669954705,0.0005025064494677154,-0.031799260468222734,-0.1326010729306902,9.714524632521655,0.00796517601461584,0.00116340694503161,-0.0076788664879543535,0.6184225237851662,-0.3832317313097939,-1.5413015091178859
22141,1.275,0.9999998610350026,-8.681203370314532e-05,-0.00015834253247174103,0.000495299191074517,-0.033719056266320255,-0.13625729363577663,9.802291514753724,0.01164718574054203,-0.002114578795039148,-0.009615499527751821,0.614523768824549,-0.3856340978980091,-1.5383298653100608
22142,1.283,0.9999998510345952,-9.934015301454391e-05,-0.00015221057970970215,0.0005146787939057856,-0.02530701842396745,-0.14509300949367399,9.762883104930685,0.006823831378649188,0.0023969205830634875,-0.0032340314601947092,0.6211049211914346,-0.38153907420589467,-1.5425515338435072
22143,1.292,0.9999998541113079,-9.915325611746779e-05,-0.00016162826490847868,0.0005057887893067667,-0.040213287306900804,-0.12079508089198401,9.753972743181425,0.00996588133328712,-0.0012152158087816078,-0.009954206612870442,0.6135716136308854,-0.39600504075706167,-1.5286676568714626
22144,1.300,0.9999998610533047,-9.59957375160286e-05,-0.0001445386328845716,0.0004977818531588171,-0.047049752533009755,-0.15006395283378732,9.781655094717383,0.010605301133614383,0.00511225329937863,-0.009762172310931143,0.6245520536344809,-0.3870017498447654,-1.5310121889506818
22145,1.308,0.9999998596374726,-9.874036414290429e-05,-0.00015462908765856607,0.0004970565570510757,-0.025631667104724597,-0.14277517864028255,9.762916430645475,0.009145156997495813,-0.0014615671381149114,-0.008124494814148942,0.6132902979617585,-0.3910726641943893,-1.5433820884649845
22146,1.317,0.9999998576406287,-9.7462837211441e-05,-0.00015035700671064321,0.0005026056988852951,-0.03877951661853846,-0.15807776038564614,9.742263107706528,0.010144822663919483,0.0019931173476388964,-0.006551155215936112,0.6226014508557387,-0.3884535232020696,-1.530011368431043
22147,1.325,0.9999998599381514,-9.279276060182287e-05,-0.00014521055291759704,0.0005004268942041299,-0.004252690738808395,-0.13464810037795266,9.74418889067174,0.010964955418830679,0.0022402825171413897,-0.008379479543393176,0.6257586088013595,-0.38829676086602266,-1.5366138191070784
22148,1.333,0.9999998578736095,-9.151713069526732e-05,-0.000140936131801635,0.0005059786378769635,-0.012839261099550706,-0.12418685367961405,9.78361407954947,0.010144355466259067,0.0019936873317180715,-0.0065505307679374165,0.6233164301278808,-0.38341761259564594,-1.5369164781808842
22149,1.342,0.9999998561973744,-9.250657096353468e-05,-0.00014366107577938025,0.0005083397089465818,-0.04093021599297417,-0.11586848804387058,9.754029528423054,0.00964439086911038,0.00026654240136943306,-0.007336573448078274,0.618947542390367,-0.3935379653915019,-1.5267606332931922
22150,1.350,0.9999998573866986,-7.590071830296069e-05,-0.00015313768225117878,0.0005059787678207199,-0.01758039351216472,-0.14813182200800484,9.723565044560667,0.013826464736681135,-0.001282926193708109,-0.008484696846515708,0.6150414274652212,-0.3971997531734348,-1.5267022332195535
22151,1.358,0.9999998481885217,-9.434503945239483e-05,-0.00016864335138940488,0.0005160245797710681,-0.02583129251541929,-0.13774383410317564,9.762988185950881,0.005323101927025257,-0.0027834340859666756,-0.005591434340394866,0.6206306020440974,-0.39318561545300107,-1.5370243947518247
22152,1.367,0.999999853861408,-7.718131328033897e-05,-0.00015898461858998225,0.0005109247488647743,-0.012716148169870701,-0.12085960675224827,9.783655911184056,0.01396421026462451,0.0033178157052825815,-0.009080472053216649,0.6189059595006695,-0.3859429258608159,-1.543220100235877
22153,1.375,0.9999998494802249,-9.756256378835786e-05,-0.00016271546721419603,0.0005148249710217782,-0.02597409170956017,-0.1361926638690591,9.763009568611809,0.004961669015375515,8.912961874807995e-05,-0.006973495279828035,0.6118469383917526,-0.38778587442302764,-1.5348763040696831
22154,1.383,0.9999998474143926,-9.62936005093004e-05,-0.00015843383881619403,0.0005203820255575061,-0.011169071344980335,-0.1591773875031645,9.77196088515749,0.01014277616284015,0.001995380747412655,-0.006549242655882709,0.6196526375357773,-0.3880655834360295,-1.537578108402646
22155,1.392,0.9999998453910153,-9.51148615779511e-05,-0.00015429298340809036,0.0005257040837362126,-0.05421429750810589,-0.12726801538817784,9.733430043520281,0.010142561925840149,0.001995621490871258,-0.006548952771385559,0.6248003635029465,-0.3825849564343752,-1.529362214609926
22156,1.400,0.999999843594569,-9.593215146977363e-05,-0.00015725235722866793,0.0005280904809274668,-0.026290518800977988,-0.13395258222910716,9.763039715370379,0.009642973946198844,0.0002681477714160341,-0.007334514638928656,0.6142852531696272,-0.3878020516173638,-1.5361030640051658
22157,1.408,0.9999998510706191,-9.220581588166913e-05,-0.00016549953982487493,0.0005118268550223397,-0.026251505578049474,-0.13312374056978668,9.763051157864894,0.01078347786320911,-0.0009658233475387336,-0.011776532240389326,0.6179455251710274,-0.3885441154903521,-1.5368349647939281
22158,1.417,0.9999998497053996,-9.795132820542182e-05,-0.00015749563137686364,0.0005159358893932208,-0.054328903813658486,-0.1248683955861829,9.733460483769358,0.008460602051916817,0.0028942215748655907,-0.00688877904129686,0.6194153144835846,-0.3890064703503387,-1.534879247427645
22159,1.425,0.9999998573433001,-9.902720125740961e-05,-0.00015487493281719935,0.0005015184426195421,-0.026494878271421995,-0.13161020822670846,9.763071020163569,0.009601128331264294,0.0016601059250524865,-0.011330540624198953,0.6182020406101357,-0.3897000026403185,-1.5319370363134008
22160,1.433,0.9999998549461722,-9.28381390812646e-05,-0.00016154483697650697,0.0005053632168386798,-0.013408751934643514,-0.11463952962967182,9.783729844731203,0.01132324758898188,-0.0006278749047432047,-0.00699244948005926,0.6237969619888609,-0.3915156064211725,-1.5399844819029909
22161,1.442,0.9999998529064763,-9.153907959551391e-05,-0.00015714815239380468,0.0005109912727449015,-0.026575219719240588,-0.12988938509154943,9.763093847871401,0.010140920395980253,0.0019976652248366736,-0.006547389552309658,0.6213696585490378,-0.388755880287142,-1.534399180366125
22162,1.450,0.9999998554843884,-8.896423503933947e-05,-0.00015917209169837148,0.0005057477754602719,-0.07623007178416744,-0.12808069755357723,9.752256730101468,0.010461556908776962,0.0005166220382004565,-0.009160596508348624,0.6277216035211851,-0.3884891130296092,-1.5327096234987616
22163,1.458,0.9999998537271603,-8.981226215614453e-05,-0.00016181576181644117,0.0005082273850921212,-0.026692194473042444,-0.12823707856922398,9.763115371026835,0.009641479605547018,0.0002702097472586719,-0.0073321948760080935,0.6213561966141186,-0.39200060935322967,-1.539727724736056
22164,1.467,0.999999861235251,-9.085257607759482e-05,-0.00015919459532934358,0.0004938950995024334,-0.04831096629271768,-0.13394105487554347,9.781883002870398,0.009599641079731326,0.0016608983296145946,-0.011328873407104909,0.6103617551964746,-0.3881367630911085,-1.5429252753105414
22165,1.475,0.9999998637365539,-8.832809494771595e-05,-0.00016144138666656976,0.0004885301419226382,-0.005288815787479996,-0.12015777628652854,9.744377838645736,0.010460780240792857,0.0005176123435406192,-0.009159457904683668,0.6160108022283668,-0.3852735029133266,-1.5295485388499783
22166,1.483,0.999999865704867,-8.159373003381571e-05,-0.00014897001081130514,0.0004896331756885433,-0.04012263437969855,-0.141890576290984,9.742506871915118,0.01145794268292559,0.00397436172889265,-0.007588801685430922,0.6223499265235538,-0.3889805868394009,-1.5329337016605116
22167,1.492,0.9999998637708949,-7.963733421498309e-05,-0.00017000878876177134,0.0004870452728518925,-0.02699970800705878,-0.12486861295262726,9.763158189436282,0.010324579020492435,-0.004081829022397754,-0.008559621411825992,0.6165015079952106,-0.3840399652305467,-1.5285894759477445
22168,1.500,0.9999998706359277,-7.652006572733653e-05,-0.0001528934633370651,0.00047905782153708946,-0.04014010305072257,-0.14016287245848094,9.742531808875018,0.010595526761796266,0.0051183479482147624,-0.009757535652014598,0.6191704025969291,-0.38437144126542416,-1.5351842221860073
22169,1.508,0.9999998658643017,-9.003412315175697e-05,-0.00016025802075454818,0.0004842340366647338,-0.027199341991762407,-0.12332031935652985,9.763177312623148,0.006640894279018596,-0.0008064553407457534,-0.00662853161695834,0.6242943455926436,-0.38707292949984445,-1.5363821771013146
22170,1.517,0.9999998647904786,-9.787428436681074e-05,-0.00015948724148260798,0.00048518395344182666,-0.012299443073835908,-0.1462972615043069,9.77216084301015,0.007958798611341774,0.0011687662485943878,-0.007671256059836404,0.6201627482116179,-0.39527591863954226,-1.528938134902792
22171,1.525,0.9999998628582734,-9.65196318177395e-05,-0.00015495943988061862,0.0004908716401778523,-0.027328447869585368,-0.12199345019869513,9.76319362355557,0.010138282540597706,0.0020010496622079833,-0.006544757497731361,0.6206241731166589,-0.3854061559068831,-1.5395691125292499
22172,1.533,0.9999998659400843,-0.00010096511112416282,-0.00015325970598231172,0.00048418728040601516,-0.04056197402554882,-0.137378250845897,9.742569723441669,0.008777963568402714,0.0014157256574408058,-0.00949842156712456,0.6152581693535403,-0.38953029854880267,-1.5375475936051972
22173,1.542,0.9999998689924252,-0.00010553730071327807,-0.00015164106231943736,0.0004773698760172337,-0.025754288213646885,-0.16023294473034788,9.751561297894831,0.008777721841725367,0.0014159977964026621,-0.009498094713521681,0.6145244182564337,-0.38660733920099066,-1.5380728051894847
22174,1.550,0.9999998580568985,-0.00010407090790081925,-0.0001528972830609409,0.0004996777455679436,-0.057636455985585394,-0.11655558122072414,9.82137269741934,0.01017995435018698,0.0006127038221901319,-0.002547042962067734,0.6223366198932325,-0.3968635804292702,-1.5382007728881444
22175,1.558,0.9999998730941085,-9.410406687882063e-05,-0.0001339680943204205,0.0004764543435162093,-0.012972554893271268,-0.14239494125047134,9.772217617478224,0.012231900012572093,0.005613331130799595,-0.013411130272087155,0.6191697613389705,-0.38364231914790475,-1.5354380468780413
22176,1.567,0.9999998669521843,-9.625396051138252e-05,-0.0001305831845484054,0.0004896721565034785,-0.041274318631334274,-0.13412252661468835,9.742612096268179,0.009317695846206828,0.0017561043426400319,-0.004715654859988548,0.6169764320130873,-0.390458243707643,-1.533877193327318
22177,1.575,0.9999998659927073,-0.00010134902843597543,-0.0001480129483953942,0.0004856285709187376,-0.006565653931539838,-0.11074662777208634,9.74448856474482,0.008642854057430066,-0.0031834172259294228,-0.008896219433192989,0.6167346773726678,-0.38800411009755204,-1.532932457196762
22178,1.583,0.9999998676196267,-8.969989783090653e-05,-0.00014648047716100826,0.0004850341505853293,-0.05604400782025566,-0.10897928005495931,9.73364162918523,0.012637178765626296,0.0013540998244084322,-0.008028355234096703,0.6184337067756679,-0.38561468526480575,-1.5368750235171207
22179,1.592,0.9999998659866645,-9.064981107330691e-05,-0.00014943597298430397,0.00048731730399542066,-0.026262523327365513,-0.15518695497997556,9.751641550185754,0.009638357934913123,0.00027466476466923444,-0.007326821333462703,0.6240589136186219,-0.3892247060248631,-1.5329347837643796
22180,1.600,0.9999998681628403,-8.601405984864067e-05,-0.00014419176817532785,0.00048526757312603193,0.008283596549640204,-0.1316953480151312,9.753515048617263,0.010955244591451826,0.002250370996366701,-0.008369707151099226,0.6243079873539392,-0.3891988225139252,-1.5309824533034593
22181,1.608,0.9999998712517679,-9.044138136775431e-05,-0.00014215132648168406,0.0004786541599984275,-0.041415921442779745,-0.13000201548425944,9.742667348887046,0.00877584708033578,0.0014171785172377553,-0.009495638179631116,0.6223514052136999,-0.39629769152553235,-1.532348401991435
22182,1.617,0.9999998608639745,-9.31367460183397e-05,-0.00015788992452143118,0.0004946396165955951,-0.026425980382870015,-0.1528239720272576,9.751678426588256,0.009183040744835983,-0.0028419225730316722,-0.0041130298340348835,0.6206408086456661,-0.3848305606865435,-1.5329843864133161
22183,1.625,0.9999998676245886,-8.996514276215823e-05,-0.00014056604774732384,0.00048672195867213274,-0.006801568983505595,-0.10581149235895033,9.744543242605879,0.010589820232564462,0.005122050068454412,-0.009754521376025305,0.6257682722320842,-0.38214201420759203,-1.5327888103181
22184,1.633,0.999999857364991,-9.473825030513015e-05,-0.0001635507840003858,0.0004995455963294105,-0.02652297620253681,-0.1512405227134431,9.751702849902559,0.00868530307699693,-0.004570461756439186,-0.004896188942290652,0.6257512815325355,-0.39053265880158927,-1.539514121127097
22185,1.642,0.9999998554251001,-9.365611074357501e-05,-0.00015890434619558283,0.0005051016935947785,-0.02825278605811376,-0.11074762460576065,9.763325034059493,0.010134693013483145,0.002005221177435648,-0.006541269582108504,0.6135466662701949,-0.38783440600603614,-1.5385423976982138
22186,1.650,0.9999998529373787,-8.748759087398979e-05,-0.00016553559925244706,0.000508988318545468,-0.04984711382957393,-0.11635817693902066,9.7821002497659,0.011318311300793905,-0.0006187714276583848,-0.006982281189073215,0.6221145844627203,-0.39381767440450355,-1.5294507186096142
22187,1.658,0.9999998554632282,-8.486099802901858e-05,-0.00016754063287745946,0.000503787922355913,-0.017987133226709515,-0.15843332831963886,9.712361600514402,0.01045568942513304,0.0005228999792316986,-0.00915164916934162,0.6211296642039699,-0.38360672932036527,-1.5327576787303068
22188,1.667,0.9999998577376722,-8.023528313104028e-05,-0.0001622871267236399,0.0005017467720528087,-0.04148059465484022,-0.12431737855377145,9.742741269708207,0.010952833169757672,0.002252505252794055,-0.008367645874019202,0.6301648194927947,-0.38750292997115865,-1.531996377897148
22189,1.675,0.999999852470246,-9.1633216606397e-05,-0.00016203885925966503,0.0005103001547097119,-0.000502522067437385,-0.11473072753636963,9.792988870046747,0.007135951887348307,0.0009253935329940823,-0.005839409293942929,0.6225803510427996,-0.3846576211561603,-1.5383631611055897
22190,1.683,0.9999998550164745,-8.908548287263428e-05,-0.00016403270930409576,0.0005050980867532087,-0.04165339106823908,-0.12287402558613661,9.742758842307241,0.010455046714941116,0.0005236557886413449,-0.009150559523373923,0.6191440872893449,-0.39061354477327004,-1.5456004279480033
22191,1.692,0.9999998624922248,-9.03170925602668e-05,-0.00016141744269652033,0.0004907165814228239,0.007828552179575286,-0.12291468517159648,9.753630030073605,0.009592216550067234,0.0016649615736845918,-0.011320003954129992,0.621849961540084,-0.39001853691972704,-1.5375577760874084
22192,1.700,0.9999998600195157,-8.415364516158666e-05,-0.00016803898599605216,0.0004946129925024331,-0.02682557336429051,-0.1447496489483386,9.751800530250122,0.011317127908086354,-0.000616462801683362,-0.00697989489646863,0.6196538056167276,-0.3861061590745974,-1.537115755018166
22193,1.708,0.999999862301877,-7.961818915367983e-05,-0.0001627174403849823,0.0004925243195789547,-0.041823838420979496,-0.12031682148030398,9.742790027903604,0.010951323777974104,0.002254130571548673,-0.008366158118819344,0.6152711616829512,-0.39068295025990174,-1.5324049299279177
22194,1.717,0.9999998605517976,-8.04678296864305e-05,-0.00016563291646721172,0.0004949616663083929,-0.013900239624299371,-0.1268025586671804,9.772431100643333,0.009635260588595897,0.00027847133891623814,-0.007322129191902445,0.6274564129059259,-0.38615792609647304,-1.5410413868117114
22195,1.725,0.999999863009503,-7.798549998358839e-05,-0.00016751846309662408,0.0004897313565380272,-0.05040958867067225,-0.10894010266527498,9.78218279185533,0.010453769597016221,0.0005250656074713166,-0.009148684095386665,0.6138013478486157,-0.3894882378435286,-1.534370353579827
22196,1.733,0.999999862018427,-8.584842289239737e-05,-0.0001667289923684014,0.0004907082817940803,-0.018591063892231825,-0.1511848951917243,9.712475996926965,0.007953347523340403,0.0011731253586185842,-0.007664699354185243,0.6169738915030314,-0.3882741127939521,-1.5348827858098284
22197,1.742,0.9999998550594893,-8.102050367543073e-05,-0.0001671624328785207,0.0005053448318816961,-0.029008172179654713,-0.10094318035788004,9.763429109982166,0.010994333756964764,0.0008686863259566967,-0.004368189019748617,0.61966609129677,-0.38457673518447955,-1.5322527994612571
22198,1.750,0.9999998506862912,-0.00010343664111246688,-0.00017809954926240176,0.0005061707293061137,-0.014023899296596608,-0.12383762731407855,9.772468943724322,0.004459251927035532,-0.001638601549981369,-0.007746691610808529,0.6167275707998512,-0.3968312260405979,-1.535745402646146
22199,1.758,0.999999851709176,-8.886727490899935e-05,-0.00019472847248665166,0.0005007644708092795,-0.061508707245072,-0.16203734806338868,9.750051130939381,0.01331905811756304,-0.0029915045604205883,-0.00924371667033128,0.6216089625925898,-0.39171119402362625,-1.5363139192652298
22200,1.767,0.9999998505507008,-9.258733006340404e-05,-0.00017943319833300077,0.000508064847907351,-0.013885638037409987,-0.12220898746693325,9.772489645899286,0.008945835513011348,0.004633471546811082,-0.006098404383063735,0.6186717691729338,-0.3883323506935622,-1.5392812346575835
22201,1.775,0.9999998485783584,-9.136799289007435e-05,-0.00017505625116876324,0.0005136637604877007,-0.04875789240217381,-0.14413885967243326,9.770673598389116,0.010130499921856226,0.00201008142443851,-0.006537400300445369,0.6223275033250667,-0.38250584463114184,-1.5418093208618364
22202,1.783,0.9999998509357326,-8.675925704726363e-05,-0.00016978549646023757,0.0005116387679796879,-0.014315961592213933,-0.12057552489645867,9.772509316232883,0.0109487775751075,0.0022565865785214387,-0.008363718347180716,0.6145405106145968,-0.3882320520886781,-1.531703078623081
22203,1.792,0.9999998535004302,-8.44325716235875e-05,-0.00017179678716729434,0.000506316228154435,-0.014420536656305789,-0.11970516172859769,9.772519862033802,0.010451975594647682,0.0005268735872244776,-0.00914595448859645,0.6228498015938351,-0.38525732571899046,-1.5283452169475775
22204,1.800,0.9999998471044338,-8.6609792241025e-05,-0.00016837547847628316,0.0005195570724459425,-0.055592677930699365,-0.127857917883191,9.722297321758557,0.009311309008574832,0.001764783451731952,-0.004709997755843345,0.6232837431103415,-0.3835890908556092,-1.5498547537205114
22205,1.808,0.9999998455304024,-8.981938959692293e-05,-0.00017838042785438583,0.0005187022961045468,-0.02947106273177932,-0.09464095040921117,9.763490846645066,0.009136732647710883,-0.0014490726952261991,-0.008101235847151295,0.6169807409924211,-0.39019147645011015,-1.5321715999110037
22206,1.817,0.9999998445395115,-9.976264765121301e-05,-0.00018483801712508777,0.0005165300325361905,-0.012527328847672112,-0.1572231250931624,9.761005528927091,0.00745497435839398,-0.0005555798536999752,-0.008444786098170311,0.6208721032928045,-0.3880720543137639,-1.5380694291671835
22207,1.825,0.9999998416192889,-8.94666193310246e-05,-0.00017690460899237858,0.000526746504389543,-0.027572080250428878,-0.13291348290477042,9.751966953253577,0.012306844981382663,0.002848902316132011,-0.0054097466859398926,0.6174771118198514,-0.3923464884139959,-1.528970175351509
22208,1.833,0.9999998440010827,-8.486516158852069e-05,-0.00017162704357500796,0.0005247283803208433,-0.006234083796648323,-0.1254921685003962,9.733205271130227,0.010947078294875807,0.0022581873698143905,-0.008362044681773298,0.6228394396876685,-0.3889741159616664,-1.5324466984283842
22209,1.842,0.9999998423424277,-8.767090794616513e-05,-0.00018160383111602096,0.000524069633280283,-0.04275916325235784,-0.10765293676584489,9.742934125651058,0.009136159432262491,-0.0014482904765324351,-0.008099714115246693,0.617707397382352,-0.38387349657789804,-1.5344546370818015
22210,1.850,0.9999998412460974,-9.554571737559978e-05,-0.00018080587001139667,0.0005250600277100267,-0.034348460572473025,-0.1604430784599059,9.779831974757286,0.007950508206593841,0.0011752004361416006,-0.00766141973169692,0.6243022895976478,-0.3848337961254107,-1.5332377566748883
22211,1.858,0.9999998437476544,-9.11678258468493e-05,-0.00017536809544231209,0.0005229140705160986,-0.014850320953960001,-0.1134463479037051,9.772593879514169,0.010946190699139933,0.00225913587330571,-0.008361232127487774,0.6228232410684647,-0.3841758536629704,-1.538858485565834
22212,1.867,0.9999998470786063,-9.565358588934979e-05,-0.0001736427978678049,0.0005162764121365381,-0.06455162477689945,-0.11187872884655814,9.761732908590734,0.008768313026149287,0.0014217081980038948,-0.009487111177158643,0.6143031303449207,-0.38746410470475195,-1.5290268656478743
22213,1.875,0.9999998443036817,-8.758144568921823e-05,-0.0001729511604198427,0.0005232685722772973,-0.04967844891800454,-0.13454214756198538,9.770805820929763,0.011809097891408856,0.0011211061216978627,-0.006190010428301351,0.6230663190944326,-0.389308827435411,-1.5392793951696122
22214,1.883,0.999999848638236,-0.0001032210164421559,-0.00018203789212151717,0.0005088527616728347,-0.019648276479722185,-0.13711993837514924,9.712682664683708,0.006094456561483688,-0.0011465635338089998,-0.011394597154528376,0.6262511729506695,-0.38729763605210327,-1.5349191655570786
22215,1.892,0.9999998511362954,-9.86879093171327e-05,-0.0001764751799216823,0.000506798376831322,-0.013193435086253114,-0.1501413611739948,9.761116151512766,0.010944966037554932,0.002260593001739255,-0.00836004403578382,0.6255132436570483,-0.3885473509292193,-1.5370982037010081
22216,1.900,0.999999844715366,-0.00010087645532584623,-0.00017303722165346798,0.0005200493290977797,-0.03488470434140232,-0.1557963685772564,9.779905204837844,0.009308638979972975,0.0017686643450028777,-0.00470749021958941,0.6186895482611128,-0.385064973555404,-1.532243861442796
22217,1.908,0.9999998466105291,-9.144526672195944e-05,-0.00017850672282070302,0.0005162867723816437,-0.02837332005226716,-0.12495785891372878,9.752069839397272,0.012130451905853663,-0.00036193101291018357,-0.008796484721636025,0.6172459152598275,-0.3920344250123219,-1.5238463074551376
22218,1.917,0.9999998489839041,-8.685618637079247e-05,-0.00017321573867816838,0.0005142805457621298,-0.013464668833035709,-0.14750962035210693,9.761155906601365,0.010944112501767207,0.002261339125876357,-0.008359134762418508,0.6213909827496987,-0.38083082599199863,-1.5259585698551874
22219,1.925,0.9999998515545907,-8.433584872358574e-05,-0.00017493084190862355,0.0005090947473644193,-0.050080773024387695,-0.1296323020327578,9.770870140020762,0.010448272371105951,0.0005308438854111834,-0.009140276235572396,0.6147662628100415,-0.3917467838511658,-1.538981951606079
22220,1.933,0.9999998495296871,-8.313877209262816e-05,-0.00017056235109998502,0.0005147203435393352,-0.035196041662572466,-0.15228165052017964,9.779959448452725,0.01012560472197879,0.0020159608018993904,-0.0065325292120275175,0.6169829954150595,-0.383831435872624,-1.531279247427464
22221,1.942,0.9999998518080973,-7.861549372244633e-05,-0.00016541307634033756,0.0005126810916800269,0.007707911553247853,-0.13847193553625822,9.74241538202668,0.010943262558522291,0.0022622323088149067,-0.008358144426053867,0.6206385297012488,-0.3904582437076429,-1.533886445182482
22222,1.950,0.9999998416044913,-9.121124972795916e-05,-0.00015920007846879564,0.0005320966411023994,-0.05052654423536005,-0.12722308614278735,9.770899509979007,0.0068077416098571274,0.0024163078990812777,-0.0032251398593567174,0.6206236299458148,-0.3876064640149101,-1.5397841120787799
22223,1.958,0.9999998429054996,-7.675895648592814e-05,-0.00017573331379191996,0.0005267018526338606,-0.035513428092902886,-0.1498854673579179,9.779995320216788,0.013315589501807225,-0.0029828461942963125,-0.009229982106545142,0.6186793253116915,-0.39293178995093725,-1.5362903406383885
22224,1.967,0.9999998501561979,-7.373341348598004e-05,-0.00015856182070446973,0.0005187572793015732,-0.0420808448197734,-0.13524729207074232,9.731574567179834,0.010573731587310653,0.005131596705777476,-0.009747094803665512,0.62258483984851,-0.38976147597879585,-1.5365863882613509
22225,1.975,0.999999852691834,-7.112121614702262e-05,-0.0001604415987725652,0.0005136307787513586,-0.04424835288311875,-0.09463533642282194,9.743062615357221,0.010446996455858538,0.0005322199264803553,-0.00913793919654108,0.620641004819895,-0.3906894211376362,-1.532906736128308
22226,1.983,0.9999998461817289,-7.331889072835328e-05,-0.00015699080620106692,0.0005268915882030521,-0.05742717010459935,-0.15373355903021851,9.79881371701709,0.009306396073347436,0.001771794843332811,-0.004705119524317264,0.6137921867191042,-0.3922220804666212,-1.5379965399619855
22227,1.992,0.9999998451424795,-8.109379444047783e-05,-0.00015626183231971932,0.000527940388298046,-0.007928747311595721,-0.11013454796100842,9.733389927536685,0.00794715099716388,0.001178034645389239,-0.007656896628232208,0.6152703651203947,-0.38531556361860064,-1.5327202277622503
22228,2.000,0.9999998424776918,-7.495795025989105e-05,-0.00016283177877414774,0.0005318944534896357,-0.02947837629200397,-0.1158290378084295,9.752179259695922,0.011310446338671025,-0.0006043168860899046,-0.006965879663067111,0.6238172652392432,-0.38994412182578064,-1.531947987062777
22229,2.008,0.9999998470184333,-8.858115546640269e-05,-0.00016455253004962598,0.0005206140163682518,-0.036009313990982235,-0.1450476076694781,9.780066449771377,0.006587638278854115,0.0005841162243094749,-0.010608357307525343,0.6182034130392414,-0.39384355791544146,-1.5313937972153704
22230,2.017,0.9999998473293715,-6.791480737560626e-05,-0.00015936811074409728,0.0005247195612111031,-0.0445684133124601,-0.09077044462770668,9.743097933207922,0.014799160348836195,0.002214069886938945,-0.006883700263755727,0.621609669241958,-0.39439326962484317,-1.5360342111448595
22231,2.025,0.9999998518428775,-8.122357104943142e-05,-0.00016109840713092574,0.0005135798456335978,-0.029679861550792053,-0.11337017978442336,9.752207540624765,0.006587253765844681,0.0005841785908308542,-0.010607703965480258,0.6196411402443651,-0.3947182747819861,-1.5421290015537648
22232,2.033,0.9999998453116454,-8.342658223633041e-05,-0.00015763930295871093,0.0005268458413079744,-0.04933317068354703,-0.1589697978582694,9.759541517618983,0.009305080148378638,0.0017737466655219007,-0.004703859780822036,0.6162414964871779,-0.38900647035033875,-1.5348712291531696
22233,2.042,0.9999998489284792,-8.990662118245163e-05,-0.00016326554957312199,0.0005171113796592439,-0.006319845065233825,-0.1453080881711957,9.721988350077446,0.008268731834086095,-0.0003065027038040031,-0.010261447381794055,0.6186932977217499,-0.38651027603497373,-1.5307597384330955
22234,2.050,0.9999998477943377,-9.780142357213603e-05,-0.00016244953087479598,0.000518127718529403,-0.05137934279562816,-0.1178328440610948,9.771012817001672,0.007945673980487797,0.001179425934948209,-0.007655190254022642,0.6272378126351404,-0.3935929678522448,-1.530931617073834
22235,2.058,0.9999998508160514,-0.00010014715193907855,-0.00015311819661709939,0.0005146778025519572,-0.06457382668261123,-0.1334482596362042,9.750464512602015,0.009257514678847797,0.0031571016258539353,-0.008699880678860253,0.6189238611977415,-0.3863373365045906,-1.536134195592959
22236,2.067,0.9999998438792763,-9.740443653311368e-05,-0.0001605997739849222,0.0005262713282887285,-0.015101547307220227,-0.13331617383825908,9.761357679754024,0.010491608377665652,-0.0008471388529320534,-0.005137467204855394,0.6184419532159415,-0.3924079617524733,-1.5336108922346394
22237,2.075,0.9999998364413624,-9.259074883764419e-05,-0.0001608127934126798,0.0005410022617701749,-0.05163214463810321,-0.11546253872344815,9.771039783022923,0.01098588572250381,0.0008847676030088042,-0.004356878534393569,0.6230812515455717,-0.3931370838699926,-1.533368786559146
22238,2.083,0.9999998440094517,-9.165060757818896e-05,-0.000150886605952933,0.0005299193058505667,-0.049817339222717937,-0.1543814042422835,9.759612718713663,0.010074097133761586,0.0034032362643124005,-0.010524579284855212,0.6203935279014053,-0.38313790358264416,-1.5342270096548063
22239,2.092,0.9999998682310438,-4.764218206011701e-05,-0.00010863363817065962,0.0004994665659138385,0.019129366855362276,-0.1081261481533093,9.763156774818931,0.006310112068664928,0.0006885444452379824,-0.004003385517007094,0.6130782692668714,-0.3921250173006043,-1.530671137398711
22240,2.100,0.9999998700068348,-4.3034165592696214e-05,-0.00010328490984800362,0.000497460151157937,-0.04356375772796604,-0.12309505874871778,9.7317293418405,0.010938141622312894,0.002267603254197039,-0.008352625278479662,0.6272428319555569,-0.3776961018473968,-1.5289448542713928
22241,2.108,0.9999998680236806,-3.9092865556877946e-05,-0.00011688782330085821,0.0004987600687615598,-0.028543969665872086,-0.14566453315223318,9.740862006460196,0.010813951077049102,-0.0023317779173081827,-0.007740980875024255,0.6208861083985675,-0.3826270171396492,-1.5325258852477226
22242,2.117,0.9999998672868383,-4.6950302191416316e-05,-0.00011603556481523165,0.0004997576635955769,-0.015469624296007211,-0.12857580478013633,9.761420692626816,0.007944171770685184,0.0011805378974753763,-0.007653275356216475,0.6120817781513731,-0.386369690893263,-1.5385581095274001
22243,2.125,0.9999998699992938,-4.672486223551429e-05,-0.00012533345628668044,0.0004920464484333689,-0.0389836798737696,-0.09454605639289017,9.79163690655526,0.009948929914562034,-0.0011954300568838032,-0.009911713776386928,0.6167254590256727,-0.3890291184224093,-1.5365812915787147
22244,2.133,0.9999998718436983,-4.2122434781427686e-05,-0.00011997929916056951,0.0004900441359126108,-0.028509371561603967,-0.14333535815920814,9.740896659694,0.010936807855496621,0.002268906570960222,-0.00835163656527601,0.616727162103541,-0.38462526676748804,-1.5359071740732468
22245,2.142,0.9999998702235341,-4.022292140028088e-05,-0.00014114112622102968,0.00048786700483182397,-0.015411750421619326,-0.12613742550803955,9.761452599176225,0.010319282282994913,-0.004062488208898131,-0.008519049701431927,0.6264895377832049,-0.3990477113429611,-1.5372056658414863
22246,2.150,0.9999998716102309,-3.356142220725329e-05,-0.00012852373098795128,0.0004890141137854771,-0.028414536842116502,-0.14159379798916574,9.740922408392931,0.011430026422671494,0.004001641926540822,-0.007571521524505752,0.6152627153767342,-0.3963429876696735,-1.5357481727611642
22247,2.158,0.9999998706697389,-3.11275860105004e-05,-0.0001494631682171743,0.0004851312610354244,-0.006875577384182655,-0.1342399432742831,9.722147101043015,0.01031903991317481,-0.004061986661079818,-0.008517992546635794,0.6135761715197198,-0.38474967471486266,-1.5268635393331311
22248,2.167,0.9999998770126942,-2.8097175037277565e-05,-0.00013223539780960142,0.00047717810583966345,-0.03695098143514593,-0.129995106958406,9.78027459684353,0.010564257052300555,0.005137501366594791,-0.009742807514263489,0.6269860839548004,-0.388017051853021,-1.533934836016853
22249,2.175,0.9999998738018331,-1.9975929825444262e-05,-0.0001312968517526583,0.0004845187477907611,0.00786763730539629,-0.15592286949372774,9.731308958139616,0.011800162766055212,0.0011354443527998401,-0.00617850246001523,0.6221007873968266,-0.3870535168666411,-1.534911915549768
22250,2.183,0.9999998722034047,-2.0827613045291583e-05,-0.0001341209451408857,0.0004870020088237816,-0.0437542906105493,-0.11466156804165391,9.731831505268564,0.0096242640655632,0.0002926848223678146,-0.007304427166442088,0.6196434764062657,-0.39079942605912205,-1.5412042947848048
22251,2.192,0.9999998699026366,-1.6798381927347798e-05,-0.0001478346394863518,0.0004879113072819455,-0.007113989830888903,-0.13079410842011324,9.72219389757223,0.010812343987758932,-0.0023286418141986627,-0.007736528348039618,0.6216248342547455,-0.38674468890383434,-1.5300315492694605
22252,2.200,0.9999998721537872,-1.4267361885348103e-05,-0.00014973259822843665,0.0004827722041805756,-0.015550860096146086,-0.12004940798131057,9.761529148673167,0.010440580555000613,0.0005387929362198846,-0.009128746964919936,0.6221131139465002,-0.3867446889038343,-1.5300327828501488
22253,2.208,0.9999998750318728,-1.6771319193157907e-05,-0.00014041080915401586,0.0004795203501478997,-0.028697662890400058,-0.13560836292667394,9.741006741807901,0.009251882372447761,0.003160570917573051,-0.008696279110291855,0.6118388881257082,-0.3868514583864529,-1.538062785067156
22254,2.217,0.9999998772526854,-1.4242125866515253e-05,-0.0001423060798699289,0.00047438460796018876,-0.000804490962052814,-0.14187473495399108,9.770696592508878,0.010440156981407047,0.0005394147947659974,-0.009127922970395375,0.6203985925736644,-0.3870179270391015,-1.5322222955468694
22255,2.225,0.9999998797371432,-1.3906832356839102e-05,-0.00015160406620716573,0.00046620650582859054,-0.03732250789610611,-0.12409398541167199,9.780349839642524,0.009946476324325998,-0.001192841091766109,-0.009906572901543169,0.6189351341014316,-0.3914056014996867,-1.5316721202782315
22256,2.233,0.9999998761157397,-3.0116443797653294e-05,-0.00014072168368445815,0.0004765069913740801,-0.03537934782152807,-0.16323686448901834,9.768981204682008,0.005935488683271199,0.0035588921582991886,-0.005393535703169792,0.6177299023201012,-0.3927894306407791,-1.5255466635950565
22257,2.242,0.999999878352278,-2.5320634101867837e-05,-0.0001352308458642613,0.00047367384687969536,-0.029117209601409146,-0.13266033440611769,9.74104609206632,0.010932790204739792,0.0022729340680201658,-0.008347987054384163,0.6152531455509123,-0.38687087101965634,-1.5395361305704238
22258,2.250,0.9999998805722164,-2.2794979602569048e-05,-0.00013712147457870539,0.0004685441742087124,-0.03774739080374526,-0.12189569253568985,9.780375854329126,0.010439302367792367,0.000540534632715129,-0.009126462483473237,0.6209010245018542,-0.38596703520330644,-1.5266217474943407
22259,2.258,0.9999998799060474,-3.080425668123047e-05,-0.0001362478451302388,0.0004697611233318525,-0.014245390262469688,-0.15446725500348413,9.750225557775874,0.007940377766272997,0.0011837015985843792,-0.007649040502456044,0.6155243400494471,-0.3842873198548762,-1.5288278917642337
22260,2.267,0.9999998826418255,-3.323578501475315e-05,-0.00012719390912991856,0.0004662975739405576,-0.03797804304563307,-0.12045137976986905,9.780392855240223,0.009249868361724131,0.0031622960255931775,-0.00869457228657418,0.617732904261739,-0.390332061591821,-1.5243584258484366
22261,2.275,0.9999998862923967,-3.979204529916327e-05,-0.00013259756006931336,0.00045634381071406354,-0.02955585290506312,-0.12964685234577433,9.741085342950207,0.008263602371073563,-0.00030313920815746805,-0.01025156270805921,0.6230686961259642,-0.3866105746398579,-1.538338511257942
22262,2.283,0.9999998781722998,-2.5892985029986464e-05,-0.00012915839530442267,0.00047571319845315046,-0.029606913867897017,-0.12877915802528717,9.74109670066338,0.013155436960819972,0.0017401158267982113,-0.0032237061946105905,0.6150110112181728,-0.39149942922683634,-1.5387416854185572
22263,2.292,0.9999998784145853,-3.795359738965705e-05,-0.00014287381117628273,0.00047044384665047826,-0.02957829699549793,-0.12796449993081283,9.741107520025315,0.006953827028933329,-0.002281574123078423,-0.009205017475709893,0.6182117776061963,-0.38574232865104763,-1.5280829086675443
22264,2.300,0.9999998742636841,-5.417074000738104e-05,-0.0001319863189878099,0.0004807470835077867,-0.00810009569050718,-0.1209713331304946,9.722320308106863,0.005933658814666974,0.0035600737809817406,-0.005392843038062197,0.6186772217114391,-0.38537380151821077,-1.5371229941424152
22265,2.308,0.9999998790353831,-3.9365492691132975e-05,-0.00012931642542584297,0.00047292371417371803,-0.029825137441849836,-0.12665920599352248,9.741123830577076,0.013429192855013941,0.0016329724783037951,-0.009822145615103427,0.6121130845658808,-0.38181053817271465,-1.5261663085143455
22266,2.317,0.9999998783224572,-4.7244227909666004e-05,-0.00012844539650710363,0.0004739460245059194,-0.010428991721507356,-0.1228885797461911,9.810135419756094,0.007939056734795322,0.0011849394933797605,-0.007647278984778881,0.6238079896747648,-0.3892602958524026,-1.535619469444524
22267,2.325,0.9999998843177441,-4.148980217636525e-05,-0.00012935166323900366,0.0004614230615696687,-0.03853571480342469,-0.11509577287508797,9.780455165730169,0.011253747742125404,0.0007884429249301255,-0.010947508643758465,0.6230858911736681,-0.3843229096824157,-1.5315323147353945
22268,2.333,0.9999998869332857,-4.393116115949796e-05,-0.00012028999804546768,0.00045796701365936426,-0.015100335023674652,-0.14758827268153002,9.750330824640207,0.009247512547767225,0.003164141024355889,-0.008692729159775264,0.6199140623425468,-0.38846322951867135,-1.5307369389564804
22269,2.342,0.9999998885890321,-3.9461777671860096e-05,-0.00011466746284920261,0.00045619739649739463,-0.07340593004333927,-0.13631475241836605,9.778754141001789,0.010929434568457285,0.002276859506797229,-0.008344275883824963,0.6182087593167058,-0.38771145932908135,-1.5292776172712483
22270,2.350,0.9999998887155696,-5.931643934579802e-05,-9.917706198575407e-05,0.00045739951749291483,0.005937152501141478,-0.13964873729503574,9.731557470864896,0.005066346061697333,0.00469406217675096,-0.00756442139832169,0.624316335573042,-0.38060935487860703,-1.527678035612717
22271,2.358,0.9999998951542399,-6.061474121290979e-05,-9.61825033709165e-05,0.0004435834627762333,-0.050333280342313706,-0.16840338970106544,9.748642765725904,0.009570796489791375,0.0016771411913293543,-0.011293841590306572,0.614054203740275,-0.39188413355400936,-1.530920958395038
22272,2.367,0.9999998930835975,-5.4468921374262504e-05,-0.00010265339256924314,0.0004475803963822912,-0.03092169135222675,-0.1212872107905654,9.74118877795281,0.011302434304750395,-0.000588161882457924,-0.006948777435929147,0.6216291841037099,-0.3876985175736124,-1.528309778710436
22273,2.375,0.9999998912480692,-5.318583245989294e-05,-9.812415343463103e-05,0.0004528209003791745,-0.017996038614535883,-0.1040110453295288,9.761709012943475,0.010112194818859803,0.0020327537443505937,-0.006518951425690851,0.6230780534297048,-0.38973559246785805,-1.5346346745907748
22274,2.383,0.9999998934916267,-5.067426685032891e-05,-9.999599598199674e-05,0.00044771604253395636,-0.03107035155758005,-0.11958776763415571,9.74120931582656,0.010435997160132784,0.000544992719034217,-0.009120429162782294,0.6179570388102922,-0.38237966251531974,-1.5322776007857253
22275,2.392,0.9999998961140201,-5.0364732816152264e-05,-0.00010901293493648902,0.00043971754924021516,-0.02451873691815071,-0.13220898575968346,9.789713523320236,0.009943621487693581,-0.001188236495338367,-0.009897814704496438,0.6143198557871161,-0.3895738205244965,-1.5224065498179782
22276,2.400,0.9999998977686068,-4.580116298533043e-05,-0.00010361527616146498,0.0004377543877941213,-0.016007120204769267,-0.14130431491126294,9.750422472236606,0.010927422163285478,0.0022792551215808717,-0.008342093142932718,0.6196658260394168,-0.39507709559822135,-1.5323577944403584
22277,2.408,0.9999998961403356,-4.436493430655743e-05,-9.90779997579945e-05,0.00044264502767435074,-0.031237884754999095,-0.11706629513960541,9.74123940837045,0.01011109321680893,0.0020340968652473386,-0.006517915545445209,0.6204328318466856,-0.3963606261344296,-1.5186696014812875
22278,2.417,0.9999999005017783,-2.9407522224114e-05,-9.642689072963765e-05,0.00043454975022956456,-0.037832830068245914,-0.14596683946457273,9.769245323084622,0.013425203164481656,0.0016385197051382082,-0.00981639961416842,0.6184628895503562,-0.39132148008913864,-1.5253238081309333
22279,2.425,0.9999999051005418,-4.259374166224466e-05,-9.790867819290423e-05,0.00042237255056373643,-0.037911002724367454,-0.1451558127719134,9.7692571003753,0.006578342872376498,0.0005858416537002894,-0.01059362401295097,0.6218651347267973,-0.3826140753841803,-1.5315518787834674
22280,2.433,0.999999904380244,-5.048399090179294e-05,-9.702440360488265e-05,0.00042341130743323035,-0.016453406668264583,-0.13809575924345954,9.750467698432466,0.00793623453264203,0.0011879135644976078,-0.007643359965710704,0.6223533326792902,-0.38017288352955836,-1.531585466649576
22281,2.442,0.9999999008524088,-4.0613711994494476e-05,-8.871087476260974e-05,0.00043448369308113236,-0.023129569121102114,-0.12385626609967458,9.701977823986956,0.01228407124052252,0.00288293739561042,-0.005390514246528312,0.6208962540909384,-0.3908753024234882,-1.528509986174765
22282,2.450,0.9999999035607501,-4.016284913067677e-05,-9.784111784488773e-05,0.00042625409293535943,-0.0037061193584908125,-0.11994068592392113,9.77098979030499,0.009942500439813587,-0.0011867144882643937,-0.009894649724426299,0.6160023559221498,-0.3909335403230984,-1.5328917816832248
22283,2.458,0.9999999024742202,-4.587570107437229e-05,-8.963337725838722e-05,0.0004300149153700757,-0.025286589871827303,-0.12566446139080628,9.789797764648135,0.008427199306076499,0.002922334370493678,-0.0068654244146369395,0.616243783605521,-0.3836229065147014,-1.533965934955462
22284,2.467,0.9999999086663136,-4.7008248685359606e-05,-8.690074881897204e-05,0.0004158194910782751,-0.053502288960096844,-0.11799829404511286,9.760100906354042,0.009567191384692475,0.0016793500133385787,-0.011289393771547435,0.6172199796445633,-0.3911938367028967,-1.5341122222384445
22285,2.475,0.9999999123500967,-6.068353192760501e-05,-8.879697529148068e-05,0.0004046386102296689,-0.0019119831547865203,-0.15761356590039524,9.759731983122812,0.006577285231019972,0.0005863091355437157,-0.010591801307486975,0.6184523559917392,-0.38991176743710837,-1.5294932336111224
22286,2.483,0.9999999030319542,-5.925683086708052e-05,-8.982179082199866e-05,0.0004270325001260289,-0.03211064689938438,-0.11019673906957042,9.74131670350289,0.0101596296967653,0.0006605242993931078,-0.002519266030883153,0.6157766936398934,-0.39010411960069497,-1.5255773189862647
22287,2.492,0.9999999081283336,-5.6168576815672214e-05,-7.249425349841701e-05,0.000418727833383698,-0.008702510521675606,-0.1426974462047736,9.71124846361696,0.010549060653399013,0.005148207522240858,-0.009734525248864496,0.612103102352034,-0.3784446365981195,-1.5301174990164628
22288,2.500,0.9999999074375465,-5.413747966980219e-05,-9.34782151452051e-05,0.0004164803171256058,-0.0388131896291702,-0.13834967195401507,9.769352317131494,0.010317088188165449,-0.004050586281745166,-0.00849606167069315,0.6236006251297528,-0.38223083232742716,-1.5210623402688725
22289,2.508,0.999999905282675,-5.3309525628385754e-05,-8.885445246517027e-05,0.00042272641467280397,-0.017206124262444125,-0.13104927715713602,9.750563652975806,0.01010802491237562,0.0020381070656276656,-0.006514791040031972,0.6169755128416377,-0.38142906928440884,-1.534241022589781
22290,2.517,0.9999999107830867,-4.7433704793328935e-05,-8.978487943767202e-05,0.00041002748357862954,-0.03882798956730723,-0.13665418465532214,9.769376122058882,0.01124796196365285,0.0007947808323940465,-0.01093786724433422,0.6138116280155202,-0.3833302557462307,-1.5303012263844404
22291,2.525,0.9999999098231651,-5.564297427039475e-05,-8.902618837773745e-05,0.0004114995248891615,-0.025944884675194898,-0.11942098693821702,9.789874193459045,0.007934002482426324,0.0011899702647256876,-0.007640521318866883,0.6218682756251807,-0.38430673248807956,-1.530308638751633
22292,2.533,0.9999999118689334,-5.314884495235873e-05,-9.087646437875153e-05,0.0004064219406996688,-0.03895960333048043,-0.13513149835776667,9.769396778250462,0.010431832932272874,0.0005500930239260904,-0.00911381801147078,0.6125848349896692,-0.38555968280406283,-1.5327102076399215
22293,2.542,0.9999999138031557,-5.0819197146575916e-05,-9.274103058301369e-05,0.000401509890129525,-0.017478966118552174,-0.1278136823278743,9.750606117798432,0.010431561907770906,0.0005504021013816399,-0.009113452977261766,0.6196678025485645,-0.3804170027150205,-1.5315754465272473
22294,2.550,0.9999999144520232,-3.429670162913721e-05,-0.00010192044892010087,0.0003994144525347158,-0.017442471357401453,-0.12683064487711213,9.75061902186194,0.013796192751680949,-0.00121972103073311,-0.008413392694937048,0.6167402688679184,-0.38919558707505797,-1.5307192143963793
22295,2.558,0.9999999137492654,-4.236108291998209e-05,-0.00010097885940441063,0.00040063732989651545,-0.025998622981458056,-0.115953567374561,9.789915733791014,0.007933018924472766,0.0011907142878237323,-0.007639555531865004,0.621364989916951,-0.3782814033843381,-1.5362471326382883
22296,2.567,0.99999990978501,-5.8610369261137444e-05,-9.006834047809169e-05,0.0004109531486379113,-0.015472892034582167,-0.1652053083794377,9.739390073907586,0.005925703184089256,0.003565240131630192,-0.005389899688170141,0.6189130133382142,-0.3939632691535289,-1.5404280286235017
22297,2.575,0.9999999105206646,-4.226728134124485e-05,-9.924335412588614e-05,0.0004090512156660143,-0.03922146916211731,-0.13105739102570207,9.769451236679103,0.01379563956836167,-0.001218561099318117,-0.008411990245037821,0.6191753283124429,-0.38410143856902407,-1.5332345103632847
22298,2.583,0.9999999086660584,-4.1109004397062286e-05,-9.473857604725158e-05,0.0004147318736609995,-0.0026369008431839547,-0.14696341093138202,9.759897996970233,0.010105606083457307,0.0020409823585350257,-0.006512563789739068,0.6248082829861719,-0.3796134655035548,-1.5262275004691255
22299,2.592,0.9999999064402303,-3.5257225321999616e-05,-0.00010090399160364378,0.0004191596871838839,-0.017785612385357696,-0.12274818386239149,9.750670647805174,0.011297296766511462,-0.0005782877391029748,-0.006938185121666766,0.6194247535265871,-0.39457268003296075,-1.5311430564750577
22300,2.600,0.9999999050532918,-3.614964523655732e-05,-0.00010366859222897282,0.0004217101303445302,-0.02418157728040061,-0.1517122643607949,9.778729110103475,0.009614563145192523,0.00030667983959340307,-0.007288117950428838,0.6194220985815645,-0.38897088052279916,-1.5321939449571564
22301,2.608,0.9999999025260233,-2.780336714942397e-05,-0.00010273013124501539,0.00042851071979512634,-0.03933282837459196,-0.1274999742095315,9.769497862525645,0.011787334358631989,0.0011571425697896997,-0.006161566086313255,0.6155053274889082,-0.38756116787076883,-1.5363535017918373
22302,2.617,0.9999999061026148,-3.935065927868324e-05,-9.724555454498278e-05,0.0004204635413299692,-0.011423981832759753,-0.13359147172518523,9.799226838538441,0.007064392577111636,0.00232126612780993,-0.009811205536798887,0.6148006202097441,-0.3861949771944325,-1.525382500275152
22303,2.625,0.9999999054113429,-4.731179278206088e-05,-9.644523125091168e-05,0.00042147030380665834,-0.05470285013415774,-0.10278943563652101,9.760266272418432,0.00793150264497331,0.0011918891362975872,-0.007637620121545575,0.6179496461500584,-0.38266260696718873,-1.53520378623408
22304,2.633,0.9999999054878974,-2.875051565616306e-05,-9.833525100016469e-05,0.0004225254816239495,-0.024556944475222667,-0.14856226247432544,9.7787765411119,0.014284377233350779,0.0005192184712940141,-0.0076328579878464095,0.6155127528448466,-0.38825470016074864,-1.5334143746293145
22305,2.642,0.9999998977859913,-4.357169226074382e-05,-9.936092032418913e-05,0.0004389270119724392,-0.031129990159419547,-0.13441253319820626,9.730260161615416,0.0063007833195585315,0.0007018884988171996,-0.003991546470646976,0.6272386946286735,-0.3830893719996358,-1.5305825036883247
22306,2.650,0.9999999000324533,-4.6059948756836915e-05,-9.02641256575359e-05,0.000435506546678304,-0.018344301878511646,-0.1172912952380973,9.750736779695458,0.00923627086162613,0.0031724168400187568,-0.008684094117824068,0.6177166729468304,-0.3845573225512762,-1.5307831547000545
22307,2.658,0.9999999014722363,-4.1715863903577076e-05,-8.455961146351616e-05,0.0004337798709536928,-0.061581724259084404,-0.12940999592093033,9.788360404942072,0.010918576065765004,0.002288593960983851,-0.008333039020230523,0.617723983867802,-0.3818331862447852,-1.5278893235371203
22308,2.667,0.9999998994063258,-4.0567591359315255e-05,-8.004291515162667e-05,0.000439470977620254,-0.0036173486058992477,-0.13895071901557857,9.760015047176934,0.010103231257116395,0.0020437907621098,-0.00651000898197142,0.6189467376538845,-0.38792645956473853,-1.5270791665560666
22309,2.675,0.9999998950567793,-4.698277353925901e-05,-9.087226706390672e-05,0.00044656609887881607,-0.061758818814685514,-0.12780882198478646,9.788380325553288,0.008307975907726937,-0.0016714992648398175,-0.00623797253932779,0.6186987420863291,-0.38330760767416017,-1.5286047333464692
22310,2.683,0.9999998958788073,-4.041383394059771e-05,-7.815843442327146e-05,0.00044777266100905845,-0.016643498528792836,-0.1539035021617123,9.739573295367205,0.01140771407010471,0.004024604164113283,-0.007556868060660632,0.6208987455574371,-0.3915947182244059,-1.5275238062635066
22312,2.700,0.9999998977635254,-5.7823034319202365e-05,-6.431225981910523e-05,0.0004438393502451996,-0.01809726200003965,-0.13289862907853006,9.745187928326304,0.007741164908921027,0.002625156888982805,-0.008334586061942961,0.6174900224100002,-0.3910579482704731,-1.5238598659596498
22313,2.708,0.9999998993805538,-5.3075726566088214e-05,-5.872513466189705e-05,0.0004415577063245822,-0.019484764293467544,-0.11191274932116439,9.750797782993672,0.010917124463516463,0.0022903416204899532,-0.008331101991458595,0.6191835338830854,-0.3896741191293806,-1.5299865562235133
22314,2.717,0.999999897163777,-5.193270636772177e-05,-5.420064048782879e-05,0.00044725576588149296,-0.04116532236227674,-0.11752710583250069,9.769615375103958,0.010101920292154544,0.0020456002231723914,-0.006508304273399442,0.6099116395825431,-0.3857390932121804,-1.5278178193894314
22315,2.725,0.9999998994756575,-4.944833983250655e-05,-5.6124288078853077e-05,0.00044210134698001615,-0.017556926699169837,-0.150060541157241,9.739631658235508,0.010427013881227565,0.0005553535483407551,-0.009105501878991736,0.618477074482496,-0.39124706499519235,-1.519709084783548
22316,2.733,0.9999999017069846,-4.6975580435652345e-05,-5.795073153667588e-05,0.00043705952507529705,-0.004668914850660124,-0.13269757644319613,9.760101621639471,0.01042674385410819,0.0005556622965823861,-0.009105138433009894,0.6265027463264115,-0.3882352875275453,-1.531977419756358
22317,2.742,0.9999999004939452,-4.77476727036542e-05,-6.035730263742761e-05,0.0004394192254928985,-0.05424792174746749,-0.13155609196964407,9.749188636578843,0.009611644491248798,0.00031095373219668766,-0.0072824592351205366,0.6225927593317354,-0.3867899850479755,-1.5334516741205502
22318,2.750,0.9999999047510543,-3.284107650269581e-05,-5.7641757253806826e-05,0.0004313893527433323,-0.01768486670366044,-0.14747046492241875,9.739670990203914,0.013413085524166745,0.0016537487348938504,-0.009800367435547522,0.6184422920386303,-0.3841046740078913,-1.5334767783986598
22319,2.758,0.999999907108875,-4.2511189170762436e-05,-4.478208949019809e-05,0.0004265789548918508,-0.004987721132391258,-0.13009484842902896,9.760136502287368,0.007549983496785479,0.004058223698501945,-0.009032419067569257,0.6167420945546798,-0.38845352320206966,-1.529996565462781
22320,2.767,0.9999998982579421,-4.315232262529788e-05,-5.3022980894570004e-05,0.0004458817628603406,-0.026612777925775766,-0.13586138253936333,9.778955865259432,0.009664272518137411,-0.0010610292296036757,-0.0032852664307388537,0.6235602720207005,-0.3929414962675389,-1.5370350316644976
22322,2.783,0.9999998973536708,-3.742144733542076e-05,-4.296009289524847e-05,0.0004494960664129718,-0.036460111166893655,-0.13625929939517287,9.744473571612687,0.010507387174575724,0.002170309417823784,-0.007417437889534621,0.616986875658516,-0.38918264531958907,-1.5297433575610913
22323,2.792,0.999999899675637,-3.4901130274837796e-05,-4.478278604088803e-05,0.0004443254765083738,-0.03983512754258894,-0.1498709591578344,9.758541559849714,0.010425252629481728,0.0005572526001087903,-0.009102532622223799,0.6174675583418822,-0.3833626101349031,-1.5327516623036848
22324,2.800,0.999999899877118,-4.486942807551337e-05,-5.114384116478245e-05,0.00044228587598929206,-0.024693195840625282,-0.17244956148538018,9.767845314641068,0.007438620269964036,-0.0005407393285814771,-0.008406516593403485,0.6184713685522781,-0.38663791942121567,-1.521967623583519
22325,2.808,0.9999998933932099,-4.020345048232056e-05,-5.10908756221007e-05,0.0004571509305357082,-0.018323922493656723,-0.14193613122721796,9.739752030983816,0.010967240279165973,0.000921593207935092,-0.004331463816951458,0.615032886763604,-0.3816181860091281,-1.5300828399295476
22326,2.817,0.9999998988641535,-3.933998652490563e-05,-4.105620637954156e-05,0.0004461372392066873,-0.05513411437845967,-0.12425052076903477,9.749279509884168,0.01004534756001664,0.0034212724647464604,-0.010501362895087792,0.609894922314274,-0.383873496577898,-1.534434899790785
22327,2.825,0.9999998927782797,-4.184284179395554e-05,-3.7692045011585175e-05,0.00045964324763807365,-0.0402031006978951,-0.14676589370893967,9.758587243532212,0.00928412928993457,0.0018046842018921224,-0.004682941240831464,0.6196747174293635,-0.3842873198548762,-1.5288383772000862
22328,2.833,0.9999998919476746,-4.977188195029613e-05,-3.677457345963176e-05,0.0004607331434318242,-0.018809190653624814,-0.13960376319137138,9.739784814299442,0.007926977509474195,0.0011957895953195218,-0.007631089443629822,0.6152665584422741,-0.38216142684079546,-1.534226998771745
22329,2.842,0.9999998862500478,-4.726477339521002e-05,-4.408449150814108e-05,0.0004725700900368547,-0.012281950070217257,-0.1520659295504182,9.788352195002812,0.01047775088474654,-0.0008131895332964217,-0.005104398960355167,0.6242967553198802,-0.3853511534461401,-1.5354283514754767
22330,2.850,0.9999998886421533,-4.4804444747696374e-05,-4.589777781380694e-05,0.00046754853936387434,-0.005894066287722458,-0.12145806342826315,9.76024729753603,0.010423768613277443,0.0005587403936286939,-0.009100227799473767,0.615036856920249,-0.3896547064961773,-1.5285113603492129
22331,2.858,0.9999998920014288,-4.4420723348324006e-05,-5.48932095278691e-05,0.00045935897224161685,-0.04026995767104279,-0.14364982924679445,9.75863333513008,0.009934839165985108,-0.0011772459343883724,-0.009873854143294173,0.6182050425517737,-0.38724263359136035,-1.5307487985667807
22332,2.867,0.9999998906120957,-4.53368554506219e-05,-5.7624227201119466e-05,0.00046195217754253196,-0.033860761714622135,-0.11310563103521591,9.730522042089785,0.009608795310309469,0.00031460405130988924,-0.007277784728134944,0.6204234500211667,-0.3925032507500429,-1.5223831444340805
22333,2.875,0.9999998930161387,-4.275185255668732e-05,-5.9254493341738344e-05,0.00045675912222504394,-0.04025046999238698,-0.14204627543855872,9.758656888751249,0.010422921988853907,0.0005596308168659323,-0.009099269547047978,0.6238344030694635,-0.38594762257010307,-1.5251644385400238
22334,2.883,0.9999998920507494,-2.218284141156574e-05,-5.3807261332658016e-05,0.0004609893595899604,-0.005950246584576916,-0.11799800952249273,9.76028971072987,0.014765131795679638,0.0022694535804702273,-0.006846147902104865,0.622096139594804,-0.39562357186875585,-1.5367516228020617
22335,2.892,0.9999998894011722,-4.243555036858297e-05,-5.717137008508276e-05,0.0004648960121174932,-0.049051413355926575,-0.1301227188438083,9.797931069822269,0.0049399256993535425,9.724426417971232e-05,-0.006934142961135984,0.6182179449679961,-0.38570997426237535,-1.5256417246034637
22336,2.900,0.9999998832173066,-4.468912865335932e-05,-5.353975591593748e-05,0.00047822771760420426,-0.019009260325157377,-0.13318675149406123,9.739874289554121,0.009282128046060678,0.001807371980408905,-0.004681270794680688,0.6167364131462407,-0.38457673518447955,-1.5322453979771258
22337,2.908,0.999999881760027,-4.572385056431981e-05,-5.622468139979477e-05,0.00048086177509153015,-0.01908880425661132,-0.13242109160961996,9.73988457389497,0.009607883212347486,0.0003156805889269276,-0.007276275542020283,0.6177339906034274,-0.3859314453757669,-1.5239284267493767
22338,2.917,0.9999998796604251,-3.9627394364697675e-05,-6.25991718603163e-05,0.00048496406929790384,-0.027680217817534658,-0.12146347900210717,9.779142335449771,0.011290464195215438,-0.0005654543902938393,-0.006923123512891106,0.611876615293728,-0.38982764602656034,-1.523129501705218
22339,2.925,0.9999998782319311,-4.048330734637856e-05,-6.530319084028713e-05,0.00048747586426551415,-0.0405576882859733,-0.13718878272304552,9.75872511242735,0.009607430287026247,0.00031610454111607257,-0.0072757390773005885,0.6155255898696594,-0.38476908734806603,-1.5283331840943335
22340,2.933,0.9999998776567998,-4.344397024978809e-05,-7.530631069739204e-05,0.0004869578697952273,-0.018999842777298492,-0.12996837534389186,9.739917785297576,0.00911905774300206,-0.0014203794400198656,-0.008048814076550583,0.6145534865961554,-0.38889646542885287,-1.5265668858028858
22341,2.942,0.9999998798428575,-4.600048080398587e-05,-6.621877600098069e-05,0.00048354244921535995,-0.01906218748365085,-0.1292251860907956,9.73992755241006,0.009226333088729386,0.0031791428554114676,-0.00867654173280745,0.6186959363189201,-0.39162383717421106,-1.529715320808081
22342,2.950,0.9999998785460456,-4.194503138855634e-05,-7.986736651949357e-05,0.000484530403884448,-0.0557490593124205,-0.11160351179105335,9.749428989888267,0.01080161587263134,-0.002300884550450261,-0.007694939051373195,0.6106262555102179,-0.38827411279395213,-1.5348667492608776
22343,2.958,0.9999998722206589,-4.414862136107044e-05,-7.636771418838158e-05,0.0004977725761233274,-0.025407934077359542,-0.15733085607341837,9.768098696931837,0.009280539613293802,0.0018093974672784975,-0.004680079622974836,0.6199074498970172,-0.39362532224091706,-1.5333542974275869
22344,2.967,0.999999867468878,-5.0484117103095714e-05,-8.728760549326695e-05,0.0005048707304379726,-0.019062604009930362,-0.12688689482618407,9.739958293681998,0.008304478341690435,-0.0016642281367156469,-0.006226020925891361,0.6157551405692987,-0.3911938367028967,-1.5341085214963788
22346,2.983,0.9999998731961225,-5.246656260287934e-05,-8.725097761938962e-05,0.0004931959713253566,-0.028677933599484288,-0.14893317756566768,9.743840657631539,0.009578562670013663,0.0010025954237428897,-0.009272084102268298,0.6169849437107141,-0.38675115978156877,-1.5305080670657356
22347,2.992,0.9999998756183296,-5.0094945235701944e-05,-8.903688422871155e-05,0.0004881867012212586,0.008896394237646318,-0.1312447233062671,9.769743036283648,0.010419620070577321,0.000562740097867362,-0.009094863877698972,0.6233227282725,-0.38729116517436873,-1.5344235272601312
22348,3.000,0.9999998779054057,-5.2633811818263156e-05,-7.990558183763204e-05,0.0004848030048826163,-0.0622989337787817,-0.13670229966718347,9.777640805144914,0.00922418186553375,0.0031806068592285,-0.008675204407050573,0.6184583026575314,-0.38328819504095674,-1.5271394061176764
22349,3.008,0.9999998771504807,-5.075645499099145e-05,-0.00010064006085752071,0.00048269491758576744,-0.0040854014271185565,-0.14624846785652693,9.749349473739384,0.010313013811401824,-0.004035858219183151,-0.008464708462778331,0.6169879456523517,-0.3842937907326106,-1.5293198293191153
22350,3.017,0.999999878063908,-4.424500810138017e-05,-8.786980163823353e-05,0.0004839353742266398,-0.027862759912881698,-0.1119672739117942,9.779255155380543,0.011393966441904976,0.0040379835053754275,-0.00754862120900209,0.6167495444323969,-0.389879413048436,-1.5270477320146323
22351,3.025,0.9999998771337206,-4.225855169112373e-05,-0.00010874164306997572,0.0004817904245060838,-0.025566310071838766,-0.15094582687251235,9.768199038435755,0.010312779432606188,-0.004035357555698116,-0.008463665969160138,0.6160014367507002,-0.38190436589986426,-1.5332556109456874
22352,3.033,0.9999998827475113,-3.9396633633083814e-05,-9.140529779645229e-05,0.0004739176516412137,-0.04077263649448795,-0.126845861658183,9.758864137366166,0.010523896933574577,0.005163280120504394,-0.009723177887023546,0.6206626069340471,-0.39106441914820755,-1.5243561210469416
22353,3.042,0.999999881976397,-4.741109324826479e-05,-9.036610759613257e-05,0.00047500878661895375,-0.004349232960748945,-0.14289031780686304,9.749399154529717,0.00792153810269923,0.0011999013693070014,-0.007625442881002543,0.6164945440708542,-0.3787049329779179,-1.5313459578461577
22354,3.050,0.9999998804353905,-4.8345727645875586e-05,-9.307349119553854e-05,0.000477628748204126,-0.03245350849000903,-0.1355411841655925,9.719649188691982,0.009604316641615823,0.00032019116920071995,-0.007271313526573926,0.6094129080714333,-0.38677057241477214,-1.5319536570035117
22355,3.058,0.9999998819439662,-4.4134443587874746e-05,-8.77800722700545e-05,0.0004758769413743919,-0.04117475801859612,-0.12455742777630206,9.758891925408,0.010904960301007485,0.0023023662476167445,-0.008319753616514098,0.6194208732831306,-0.3892214705859958,-1.5326789463414303
22356,3.067,0.9999998803423394,-4.008712519945663e-05,-0.00010141022640660578,0.000476890234165614,-0.03254222043051032,-0.13383586463125205,9.719672524097994,0.010799690334039538,-0.0022964986230201026,-0.007688826384520023,0.6162561183291209,-0.3835581977373568,-1.5290835668273004
22357,3.075,0.9999998787798839,-4.11086875295403e-05,-0.0001040666106082108,0.0004795001915949405,-0.025899577954003283,-0.14609553941783093,9.768271905576126,0.009603636995788043,0.0003209304015365672,-0.0072704569887181705,0.6226100524665535,-0.3874317503160797,-1.5266066524554982
22358,3.083,0.9999998773020156,-4.703126323481044e-05,-9.584557207958358e-05,0.0004837330258805298,-0.041204023666424484,-0.1221205850807482,9.758922598926208,0.008407561343703364,0.0029382738743703616,-0.0068522712685770235,0.6174694412461268,-0.3843293805601502,-1.5320063653702927
22359,3.092,0.9999998749621957,-4.1040437420764886e-05,-0.00010200628880282664,0.00048783808061771545,-0.01979587102940264,-0.11486291326153245,9.740106051518492,0.011286312600327867,-0.000558063801915427,-0.00691559247287981,0.6145349926846817,-0.38923764778033193,-1.5338872025665855
22360,3.100,0.9999998741526389,-4.899822148826604e-05,-0.00010106716876122517,0.0004889573686490206,-0.03899963158864563,-0.1604116364047238,9.747904984634413,0.007920090527782211,0.0012009570486758675,-0.007623868594676082,0.6189368780489309,-0.38822234577207637,-1.5309818256300536
22361,3.108,0.9999998796094346,-3.617584473635104e-05,-0.00010560330720849569,0.0004778288042912921,-0.01985237406123451,-0.11324067396431789,9.74012493320587,0.012912659573722,-6.85524099076183e-05,-0.010556546122697076,0.6194009660729207,-0.384198501735041,-1.5405586793458708
22362,3.117,0.9999998773607608,-3.508496274369306e-05,-0.00010101847806249325,0.00048357292742322945,-0.028554815701682796,-0.10213385338720943,9.779360800913807,0.01008949015629545,0.00205998255019286,-0.006497136514132913,0.6243059818408014,-0.3845702643067451,-1.5317762816649818
22363,3.125,0.9999998789492816,-3.08591603785604e-05,-9.537463470615879e-05,0.00048171860387858755,-0.039270590763039195,-0.15778675052487892,9.747946740138318,0.010902583627423388,0.0023046157550281774,-0.008317598112459152,0.6223614565106707,-0.3833043722352929,-1.5283698667952248
22364,3.133,0.999999876490205,-2.4784274345768598e-05,-0.00010171072572911295,0.00048586031193291175,-0.020159314097012822,-0.11055866964335387,9.740155113897465,0.01128532606230118,-0.0005563134804261428,-0.00691359478178446,0.6179776199741653,-0.38910823022564267,-1.524131101375083
22365,3.142,0.9999998749544304,-2.5765109516778436e-05,-0.00010416012528658734,0.0004884444197267575,-0.02644918078114806,-0.13940071398340242,9.768368266901149,0.0096020553037403,0.00032286269033358423,-0.007267934067079821,0.6181987607550069,-0.38385731938356193,-1.5332352786304497
22366,3.150,0.9999998812733294,-2.495770847695655e-05,-9.409451490645993e-05,0.00047746901748811946,-0.02028749333861953,-0.10891683652643915,9.740173345046703,0.010031842586957747,0.00342855936321298,-0.010492153941111606,0.615030615993113,-0.38748998821568975,-1.5309816632701714
22367,3.158,0.9999998827496835,-2.063056374295325e-05,-8.862384933244505e-05,0.00047562675716061333,-0.02051171478371494,-0.10806887905820174,9.74018232092479,0.010901417700714273,0.0023058603528034395,-0.008316352442925565,0.613078138484052,-0.38821911033320916,-1.5307229042553832
22368,3.167,0.9999998781557902,-2.6977263088859488e-05,-9.952002276984709e-05,0.0004827591498644331,-0.04832777838075896,-0.14343122177354817,9.787230941204689,0.008301894436810146,-0.0016586385662267862,-0.006217641310483506,0.6186915292524721,-0.3889611742061975,-1.5314597393668996
22369,3.175,0.9999998804374911,-2.453678475731529e-05,-0.00010134627635001232,0.00047775713674230757,-0.005283986566595968,-0.12975608007963985,9.749582344738855,0.01041439883604508,0.0005682736076210438,-0.009087187113478213,0.6135769517344241,-0.38962882298523943,-1.5265547123558825
22370,3.183,0.9999998781537873,-2.3454500444306735e-05,-9.675114422348462e-05,0.00048350957937903186,-0.005382456056599171,-0.12892357297789617,9.749593334982752,0.010087436036804362,0.002062440406970339,-0.006495115927120464,0.6098980632126574,-0.3855661536817973,-1.5331916597589508
22371,3.192,0.9999998766653305,-2.9404887879388486e-05,-8.874705873533823e-05,0.00048777929016346355,-0.011874584024800131,-0.15784992936790312,9.777820765605775,0.008404140141190506,0.0029410325395372175,-0.006849909640035606,0.6177357345509267,-0.3827481896481566,-1.523238132101199
22372,3.200,0.9999998742090027,-2.333584248966622e-05,-9.50716652749945e-05,0.0004919337312447714,-0.020868369591280345,-0.1041546329881756,9.740224206028833,0.01128390359476187,-0.0005535796181980447,-0.006910501433022829,0.6174642584471862,-0.3953438628557541,-1.5340578367435742
22373,3.208,0.9999998684870418,-2.259940019083049e-05,-0.00010951453029344693,0.0005005214616819214,-0.011828621230945356,-0.15618264618001856,9.777847595994018,0.009984456018177908,-0.0025358497678920153,-0.00586081057465227,0.621375482605937,-0.37847052010905735,-1.5320938843008092
22374,3.217,0.9999998749863338,-2.1802862373953913e-05,-9.944318777960997e-05,0.0004895538828551815,-0.04226053111590263,-0.10893781778847719,9.759074142452045,0.01002923961078979,0.003429939521565928,-0.010490287355591094,0.6128430780284242,-0.3830440758554945,-1.5271284553683007
22375,3.225,0.9999998657936637,-2.6864598286634938e-05,-0.00012212965466567278,0.0005027676356884144,-0.03985651733316359,-0.14805921927999216,9.748096962866862,0.008685222697251922,-0.004517801052536043,-0.004810560763699023,0.6247913168084018,-0.3887364676539386,-1.5329431049924964
22376,3.233,0.9999998730743029,-2.810027788898884e-05,-0.00011934328445176572,0.000488691040528846,-0.02059461286161653,-0.10098518055367045,9.74025816375145,0.009542420116635562,0.001691881404788671,-0.011260754358920627,0.6167230411245099,-0.3905067752906514,-1.5375383526330948
22377,3.242,0.9999998753973688,-2.566492202356755e-05,-0.00012099217840468764,0.0004836397950235536,-0.03981127198300855,-0.14651438726808977,9.748120489366434,0.010412440407570025,0.0005702038532265309,-0.009084646944129417,0.6218677242804104,-0.38626292141064433,-1.5305268737297046
22378,3.250,0.9999998786005179,-3.0270990219007146e-05,-0.00011912178601181004,0.0004771714748994435,-0.0183900546065118,-0.13928359475897473,9.729297820513867,0.0087290171857793,0.0014482229898712816,-0.009439796519815191,0.6187055098364564,-0.3827837794756962,-1.5259259017330646
22379,3.258,0.9999998798625511,-2.0976338171502093e-05,-0.000124286350746019,0.0004736958728719333,-0.039917337472594225,-0.1448971926201871,9.748144228969032,0.012095126604226564,-0.0003067339577342704,-0.008728335862976758,0.6196498681557876,-0.379046115329397,-1.538674292884333
22380,3.267,0.9999998820235606,-1.856609481787438e-05,-0.00012604704279171593,0.00046874332877768664,-0.005581137603796693,-0.12085009896015751,9.74969663949245,0.010411638729250501,0.0005711268681899301,-0.009083569747511925,0.6191880145148695,-0.3945338547665539,-1.5282130188078167
22381,3.275,0.9999998841801253,-1.62465268067009e-05,-0.00012772605847739314,0.0004637476039893422,-0.039952899110194576,-0.14314323768931814,9.748169995317284,0.010411371596464703,0.0005714344979443598,-0.00908321083632948,0.620391167217726,-0.38632439474912167,-1.5351614227093924
22382,3.283,0.9999998743650094,-1.8949325671165174e-05,-0.00014315858784287879,0.0004800171951122524,-0.03985551726606686,-0.1423500459439451,9.748182008540178,0.00917077806989668,-0.002776799965005575,-0.004037194582923037,0.6199103128819095,-0.38701792703910154,-1.5322210619661811
22383,3.292,0.9999998761377898,-1.4613108291993498e-05,-0.00013751446082849083,0.00047812198754005746,-0.011769496894199512,-0.1480484523834177,9.777974211958968,0.010896446581748946,0.0023105492151044896,-0.008312474554225095,0.6211228719320638,-0.38339819996244257,-1.5354462166293374
22384,3.300,0.9999998808343709,-1.8213704629522118e-06,-0.00014198447710289284,0.0004670849334528884,-0.027068815237586814,-0.12388316562261699,9.76857568929098,0.012906359294514395,-6.096696802644813e-05,-0.01054641174018389,0.6184404581779429,-0.38460261869541745,-1.5342026627608
22385,3.308,0.9999998819033301,-1.908835146926143e-05,-0.00014461199149653234,0.0004635906944794673,-0.02468865948568499,-0.1630134382633567,9.757633286181347,0.005745808532067712,0.000343426866483816,-0.008744015972950069,0.6233190932468299,-0.38926353129126984,-1.5358623542702434
22387,3.325,0.9999998782425038,-1.8988681200936247e-05,-0.00014266626952379272,0.0004720177364689988,-0.018519434389044957,-0.13233445084366668,9.729394584947475,0.009840212908776567,0.0011982024741470148,-0.00687655112183846,0.6216223100925419,-0.3850487963610678,-1.5310306708948869
22388,3.333,0.9999998773291496,-2.503514851375633e-05,-0.00013414447610471527,0.0004761514328026262,-0.04021308094311914,-0.13765283849482152,9.74824799982665,0.008399308001814694,0.0029448345077435,-0.006847333680945089,0.6123655607652201,-0.39128912570046637,-1.5228672043082463
22389,3.342,0.9999998809944768,-5.229458547017108e-06,-0.00014223667889825934,0.00046663948840007947,-0.04028493733534959,-0.13672198918401499,9.748260806803978,0.014588443556970912,-0.0009359131689086153,-0.010187935145036383,0.6145385950146472,-0.3862888049215822,-1.5324613172706414
22390,3.350,0.9999998800695169,-1.1105226301633724e-05,-0.00013409559603283153,0.00047090975467866585,-0.006036079500014265,-0.11263124226676041,9.749794777852893,0.008398715794642573,0.002945282576781449,-0.006846953759494266,0.6204188876501204,-0.3852023232582475,-1.5241890361351977
22391,3.358,0.9999998847384218,-2.4769364062858005e-05,-0.00013587644534414405,0.0004598338975286311,0.009058181427500063,-0.1352081177178581,9.759228604639679,0.006557320359854528,0.0005877003146509468,-0.010562293508323599,0.6272475005876437,-0.3881705787502007,-1.5270969019992295
22392,3.367,0.9999998827934015,-2.276427189333664e-05,-0.00015627511259722147,0.0004576822701149298,-0.03376507466679164,-0.14743217657445448,9.796918245512556,0.010309692696090745,-0.004024518557216175,-0.008442667217311968,0.617717346900494,-0.38626292141064433,-1.5305163882938524
22393,3.375,0.9999998845711149,-1.834264371166744e-05,-0.00015073121021838456,0.00045585239623000223,-0.061747703088036926,-0.14010145873859103,9.767144422502549,0.010893379824686016,0.0023138566037115755,-0.008309786097484848,0.6245588949499442,-0.38867499431546115,-1.5283042384803989
22394,3.383,0.9999998868867865,-1.7975786232371654e-05,-0.0001595148422729305,0.0004477256981117681,-0.025063045564057255,-0.15598209376243324,9.757747266946891,0.009923215564678612,-0.0011644236525700175,-0.009848419423195127,0.6172320691503768,-0.3838055523616862,-1.5293269169665438
22395,3.392,0.9999998899586392,-2.260048704095324e-05,-0.0001576307640535133,0.00044127595636365627,-0.012235514967674326,-0.13850789509804134,9.778113436903677,0.008724480893898861,0.0014513224249701612,-0.009435243680223257,0.6196908261353792,-0.3864002711134879,-1.5224621797765985
22396,3.400,0.9999998909155218,-1.5290388432788878e-05,-0.00017010765992180992,0.00043473961469139876,-0.0489241662943761,-0.12096174667214873,9.787531471461035,0.01160616025608512,-0.002039780166050488,-0.009490943270904023,0.6169868266149586,-0.38771793020681583,-1.5297627701323433
22397,3.408,0.9999998904230532,-2.3282829188413707e-05,-0.00016913913479672658,0.0004358941894840759,-0.024981269203237122,-0.15360955693226064,9.757785113214391,0.00791181080166265,0.0012077423877948508,-0.007615174728971342,0.6252881327195621,-0.38576174128425106,-1.5295655060259763
22398,3.417,0.9999998898052262,-2.8488606023709047e-06,-0.0001633054322744126,0.00044012811182714766,-0.012291808175840331,-0.13596392567489815,9.778149074954518,0.014743205833076641,0.002303539968168245,-0.0068256835960322565,0.6165149944519084,-0.38152759372084566,-1.5232512252921875
22399,3.425,0.9999998938677004,-1.2473830670578842e-05,-0.0001505018679665321,0.0004352679397216621,-0.012542427594298524,-0.1350574997492637,9.778161314169791,0.007524666013727228,0.004067219469572712,-0.009021865938096065,0.6240823005499043,-0.38763704423513506,-1.5236776968921253
22400,3.433,0.9999998932092835,5.902220331505425e-06,-0.0001518722946101926,0.0004364417392194,-0.040785981111520465,-0.12773555260357178,9.748380617452906,0.014258061573748378,0.0005650045171925857,-0.007593740589306719,0.6248083647254339,-0.38205465735817684,-1.5261951461837053
22401,3.442,0.9999998893578451,-5.45790056740557e-06,-0.0001518186213222402,0.0004452028920581363,-0.02802226325896002,-0.11013629955511171,9.768737658557367,0.0070991381068065025,0.0009643642144541789,-0.005794614299842324,0.6194325504009194,-0.38793940132020743,-1.5280568737623874
22402,3.450,0.9999998830168768,-2.881828203730249e-06,-0.0001586732259793526,0.000456925305762926,-0.02559587503811022,-0.14932251093709695,9.757850067510475,0.01046583686188474,-0.0007863855039493724,-0.005080250605498626,0.6189394512546915,-0.3913829534276161,-1.5299632914333752
22403,3.458,0.999999881360778,-3.85936998894375e-06,-0.00016132560771805636,0.000459605899935874,-0.02556979295479593,-0.14850823244445482,9.75786256214038,0.009594128116334998,0.0003331086217694492,-0.007256514652797952,0.6245421368120438,-0.3855888017538679,-1.5349374960244626
22404,3.467,0.9999998807347122,-9.827882293530913e-06,-0.00015285876380718115,0.00046375443140389663,-0.019460414396228035,-0.11816477242856892,9.729575148660095,0.008394865933482537,0.0029484088863151537,-0.006844687918530635,0.6103876335942555,-0.38726851710229826,-1.532682008527029
22405,3.475,0.9999998841855641,-1.6483920306269022e-05,-0.00015826062793701547,0.00045421439081458066,-0.02579223950109334,-0.147103921923835,9.757883247624981,0.008237936618748835,-0.00028715175324974126,-0.010201184305786867,0.6184633918515694,-0.3879005760538006,-1.5251249857241136
22406,3.483,0.9999998856053506,-1.0048529341124483e-05,-0.0001455264804163216,0.00045553304671175967,-0.04118685809085714,-0.1231514904452694,9.748437918531188,0.011373813654755136,0.004057636010393919,-0.007537528993547317,0.611620773808283,-0.3903773577359622,-1.527760663779543
22407,3.492,0.9999998872582347,-5.64351046260311e-06,-0.00013996463748627827,0.00045371970295504866,0.008109783597757606,-0.12220369362721173,9.759400943516523,0.01088938969676457,0.0023180216468629998,-0.008305759125621823,0.6177351832061565,-0.3847043785707215,-1.5234563670792707
22408,3.500,0.9999998867689596,-1.3596885328460511e-05,-0.0001390221084709019,0.0004549176259598603,-0.047800736967697814,-0.15109525963861922,9.776764417157267,0.007909840089050475,0.0012093881162179502,-0.007612303277348749,0.629695724014029,-0.3893555848499722,-1.5244015902894734
22409,3.508,0.9999998887789965,-1.1214800561093515e-05,-0.00014075055090094244,0.0004500061174719529,-0.007346247084200958,-0.0975418543101598,9.749956516665934,0.01040486122299695,0.0005786171556603453,-0.00907361378579496,0.6167513210756009,-0.38767263406267455,-1.526344495652286
22410,3.517,0.9999998940365739,-3.3498015852998728e-06,-0.000133827372658532,0.0004404609568815347,-0.039303936001261065,-0.1597591509922413,9.737607144466477,0.01170022165318898,0.002562874489500903,-0.01012391998683055,0.6201764835778163,-0.38177494834517506,-1.5235013601252174
22411,3.525,0.9999998928226109,-6.353400837622573e-06,-0.00014376316104795523,0.00044005289986247676,-0.028987554875593954,-0.10225251441955535,9.768820545851575,0.00910884817457671,-0.001404725658961797,-0.008022071284390517,0.618717652868039,-0.3954165037812531,-1.5211194097271263
22412,3.533,0.9999998909899447,-5.1763413261785944e-06,-0.00013881775019545405,0.00044578350911799467,0.010190496238210046,-0.15807361110940704,9.74858817233398,0.01007627833638196,0.0020758734068129954,-0.006485296766279101,0.6199267931063189,-0.3818040672949802,-1.525697808992546
22413,3.542,0.9999998940614953,-9.81806946174282e-06,-0.00013692101530065733,0.00043935548160946184,-0.0266862051051336,-0.14061801065702703,9.7579764656734,0.008720385995560466,0.001454156362467041,-0.009430020553024835,0.6128475423123557,-0.3874155731217435,-1.5253613888096877
