packet_counter,timestamp_s,q_w,q_x,q_y,q_z,acc_x,acc_y,acc_z,gyr_x,gyr_y,gyr_z,mag_x,mag_y,mag_z
51147,0.000,0.8126361328483729,-0.15416221621806708,-0.5611730713903197,-0.03068078594708625,9.291553186548967,-1.5154010634390096,2.71312070076307,-0.04133351346197841,0.01172419976873586,0.008197094980360425,-0.16997893293058208,0.2827519556370639,-0.8221606386669111
51191,0.367,0.8202176934181952,-0.13575090221870265,-0.5555274864377645,-0.014277246327056983,9.370695328124917,-1.4613618918063556,2.3110777749850553,0.15077002261368375,0.05443099499646485,0.013278110454544979,-0.15398386815666218,0.24626830059578222,-0.8508305345798631
51635,4.067,0.828956071799625,-0.21203319834858073,-0.5040363903040568,-0.11756305148244156,8.927269970721744,-1.96317379215874,3.4368340147414056,-0.05497428164358092,0.03161741800857326,-0.02753596926599032,-0.08590298821142542,0.420038764837071,-0.7871969950471575
51920,6.442,0.927601989016279,-0.12337666852426922,-0.35102655522656295,0.033363230698911325,9.749129808579072,-1.3362770415808478,3.1756434450927102,0.14078452903608876,0.1350618639230201,0.09627554362360931,0.3164253818835278,0.15515336722225442,-0.838461557768478
51988,7.008,0.8924904099070075,-0.18673880617962546,-0.40728252410080634,-0.052061809925375714,7.4615112278645155,-3.6688133272704144,6.572285411346084,-0.32475732257487355,-0.13870003590766025,-0.20944611866088755,0.15452248864354726,0.3391946347467784,-0.830232171700849
52046,7.492,0.8855159502172993,-0.19031453703128764,-0.4209103084424375,-0.049763351496989995,8.001290296901317,-2.540857183157207,5.448264474714432,-0.0012652241833170043,-0.055955546221203765,-0.0017960771916252457,0.12291388008785036,0.34737001399100376,-0.8042080198321158
52118,8.092,0.8599065198609644,-0.1914937825363565,-0.46164216273275827,-0.10381436286923405,6.775390204536328,-2.6820417940621697,2.811033701044585,-0.0795078034877172,-0.11768569637464267,-0.1927135533597368,0.03792364113034753,0.40446664359557843,-0.7977150400858034
52170,8.525,0.8456968982725076,-0.20225639854861105,-0.48532918690407595,-0.09134925198070266,10.50900450667125,-2.154068469822738,5.985241473162575,-0.006073184606084534,-0.1294094908756843,0.041233786837949704,0.0011979937684746928,0.40191049872431717,-0.7739621259573187
52182,8.625,0.8492052402548576,-0.16714624282415863,-0.49576968547872535,-0.07158919187826326,11.177413375611042,-8.173456076588723,-9.454665776783376,0.8321951192767647,-0.12609593122870222,-0.040201502606180335,-0.007454569690748447,0.3322346404719942,-0.8050966792143863
52184,8.642,0.8542842420320224,-0.10911195139491064,-0.5078355309833744,-0.019901993603702317,6.6660020045610535,-0.5049239907609097,-4.902752145351276,9.232441691456252,-1.4017736974458703,1.5815969046208591,-0.0045898996128064164,0.2167065452292454,-0.8459223410033935
52188,8.675,0.8589861382042053,-0.06932719158369836,-0.5065481100529453,0.02730507428908421,1.6662209473581528,14.24532930007558,37.749991942786636,3.5323499497276742,-0.045437742541894484,1.2006313242887139,0.003758816964198191,0.12349625624060707,-0.8568311035329167
52190,8.692,0.8587790101355331,-0.069078371676577,-0.5063418392339617,0.036670589827760745,22.88690576258065,-6.048330611278605,27.28074936567482,0.6273709628096708,-0.053150398029635684,0.9494841581818954,0.008151533833339143,0.10591599129244442,-0.8564078720809658
52193,8.717,0.8497992687037402,-0.057760541320883894,-0.5220787010705652,0.044031269177468704,1.5768539863995252,1.4603945975627992,5.497295420677885,0.9982719537716039,-1.516003969516526,-0.015691170147176105,-0.019635990085079418,0.0903391856954947,-0.866614469861155
52194,8.725,0.8461403811090964,-0.05459257763314232,-0.528160433221252,0.04596371072337861,-9.415968663321198,8.79768936964008,-1.2419022871656058,0.8171420123051141,-1.7428425156884706,-0.040137981210654476,-0.02502944081844693,0.08640838776924803,-0.8615299244213455
52218,8.925,0.8540361075282317,-0.1743082636889681,-0.48486217015985583,-0.0717470013006722,10.8293644115888,0.8659710124754423,6.931972920825756,-1.6101957449071171,0.5275634781581896,-0.3494078349528052,0.018797389632347988,0.3526397809738244,-0.8344252736717869
52248,9.175,0.8346608401355878,-0.07514489267618776,-0.5451667086343976,0.02208589698374718,8.120378915069555,-5.249857809883289,2.7732057019918352,1.0647471890503795,-0.5577750053849116,0.15335553012518946,-0.11826958723307886,0.12183179290365814,-0.8666519517327029
52256,9.242,0.8111699169534976,-0.042632442996852926,-0.5808098700231197,0.05334543577011326,-3.659901449940328,3.72139288496605,-0.13411310665065265,1.2653168247972038,-1.343088114492072,0.17519821869181534,-0.1898542338071935,0.054391201173779324,-0.8550822004970869
52268,9.342,0.8171317997107611,-0.100466593255199,-0.5674424049378823,0.014532811822214152,24.357033153408228,12.599472152421308,-13.02296104875136,-1.3592735348191656,0.3849832063147859,0.04278708884447345,-0.14034811964278587,0.17542734577128347,-0.8425654294083923
52276,9.408,0.8294582986642924,-0.1855772332297869,-0.5211057690511685,-0.07751644177402307,-4.737227474478808,-21.228282960940316,31.142762393222178,-3.597247871873997,1.6752145941093999,-0.6685859601484909,-0.056596558232029665,0.3597460929327462,-0.789310814252595
52286,9.492,0.8144880922309704,-0.18525590707627743,-0.5389109025892774,-0.10892398990906427,5.180286183542166,-5.646225479772625,-3.924351466644782,-0.4139283187682581,-0.4015618630754435,-0.7393462237596893,-0.09036523987806248,0.3828548670788396,-0.7717696070515555
52290,9.525,0.8197666216636795,-0.17604356456669773,-0.5343625403172896,-0.10699544329746902,-14.672453225189054,11.399551145283704,-16.835304148378214,0.5521060592750592,0.4460670689813537,-0.12649468406721562,-0.07862310243028235,0.3858102848289265,-0.7770751261177126
52295,9.567,0.8120692129970556,-0.1842122706417404,-0.5438784960712169,-0.10395005607823551,38.71051933978816,-9.829999634001158,-4.636398627345746,-0.24382247059692422,-0.6345206010998333,0.20860601937089773,-0.09347823229156559,0.3943960965081379,-0.7856442111051816
52306,9.658,0.8235656020338452,-0.08336335349482703,-0.5609773533462719,0.009729310013495394,7.527662402972743,-2.7108231295677117,13.561437909871568,3.248353858669772,-0.38961506434829724,0.7578508808220846,-0.1143542701659246,0.1472326655940638,-0.8687102427736846
52307,9.667,0.8209123134889101,-0.08034661558696575,-0.5651910470848596,0.014369245670049912,6.27102191590053,0.4574018792175575,-2.8088700017890136,1.1877358905495576,-1.2134299500004944,0.4247215917569286,-0.11558123338461307,0.13990150457319717,-0.867285917327987
52314,9.725,0.8155903260536621,-0.040246488727712276,-0.5741690828639666,0.05935069061032764,-3.621574602194645,1.9255688870808256,4.155575520892325,1.9943703786495786,-0.498381924786792,0.4523154856281344,-0.14436059170828092,0.03617220988599227,-0.8740133906698164
52322,9.792,0.8246258382222547,-0.017193830291221637,-0.5581737486075182,0.09021455260428667,23.618257339461834,5.957667747000889,-10.798068969112055,1.148751120352589,0.47577856518823425,0.344751481495698,-0.11913267879325116,-0.027704066308265083,-0.8925200594341358
52325,9.817,0.8321545404588684,-0.0929330690587976,-0.5450053839859891,0.04302786184889331,29.3459621298001,22.83223035396752,-20.09373154895188,-6.991877454756954,1.8418704052207193,0.24876503847287978,-0.07568369410457594,0.13122496771895256,-0.8905905070160955
52326,9.825,0.8427252567443952,-0.11764281746890735,-0.5247519061440589,0.02469303831541638,19.552478839738164,-7.3098936247117265,3.6543076551584335,-6.877918394698049,6.12110119661002,-0.08548907964950479,-0.02222696088665913,0.17784592191293971,-0.8881791971853644
52328,9.842,0.8563226807002284,-0.15517017933749727,-0.4925693870594518,-0.00301345227597881,-7.466043814184941,-35.29002987602378,44.21394411557619,-5.24553086082008,4.614864460713492,-0.03235747907110148,0.034781921861018,0.25681775460482054,-0.8606942513023521
52329,9.850,0.861065767833436,-0.16555407328461344,-0.4806148584509982,-0.012920917940102713,-19.67984562097507,-40.14079198203324,42.17347306436166,-3.133232199341989,3.4022596635026985,-0.36437406704926123,0.06038479634996464,0.2846155040809432,-0.8533683642999662
52330,9.858,0.8649514792186136,-0.1696095031341388,-0.4717326994826579,-0.023660415950005054,-25.405205741997705,-32.22665109878436,41.65812815569142,-1.9462453461064908,2.690575117781688,-1.39956336673784,0.07623113929377243,0.2919150457024739,-0.8481367717850048
52332,9.875,0.8572410324577526,-0.1775244371670175,-0.4808863642107477,-0.04869487853427809,-15.160473491170135,-1.1299822698431834,28.28327948751756,-2.3712734226724517,-0.9049291763361751,-2.35115972059021,0.04811699760714361,0.3277623165818598,-0.8395430476982132
52336,9.908,0.8313555626411218,-0.1857278848046784,-0.5170109274026411,-0.08398084435099028,11.037448582893298,-1.0808609402478817,-1.408378589639168,-1.6106367366899945,-2.26207593878328,-2.0294308441542896,-0.04376880101570356,0.3711216474996963,-0.8194740503020828
52339,9.933,0.8257769107232136,-0.1957576816924123,-0.5198709028981907,-0.09749701582437394,15.214310906781856,-2.7651160279716147,-0.8293701522470933,-1.285437647724089,-0.28304412104482307,-0.5631567392179455,-0.05333353183826263,0.39475617212195924,-0.8096368063177506
52342,9.958,0.826558706136582,-0.1899619621326112,-0.5220648524846372,-0.09035180160208017,1.530488290075053,-12.619066111063738,-10.660329840236322,0.7157869828531532,-0.17224193319317488,0.19310018212991992,-0.06132359573374149,0.39019016112268107,-0.8248307989444946
52343,9.967,0.8292474736740286,-0.18621047890880707,-0.5193277677322874,-0.0892914027888095,-5.460445006317442,-5.315413143243694,-28.805438591950484,0.9430160497203067,0.9323700325837644,-0.09043639114696728,-0.04327420125069228,0.3760114303580027,-0.820913299541178
52344,9.975,0.83343571681101,-0.1834338088645115,-0.5138748109789064,-0.08757638009514541,-13.538441875666077,5.614509821446416,-7.979182453764042,0.8480271854103961,1.5909019902652914,0.3088688794135442,-0.04471653490492787,0.3757918854078969,-0.8260477414628846
52347,10.000,0.8357892049912571,-0.21512852191551773,-0.4947681123845324,-0.10188542018352577,-5.592411798131724,17.39925669306902,8.019282681102519,-2.791055534836792,1.3664232217197938,0.6435905036844626,-0.010186020448007281,0.42813278761717743,-0.7946386726318191
52348,10.008,0.8329840776616267,-0.22037462109597078,-0.49597384589017324,-0.10762200951444362,10.796789999977541,11.26655580815133,4.745560040668904,-1.8528485888662705,-0.3898212382338577,-0.6519645498812253,-0.02437854527918922,0.4459197155379387,-0.7872912382912992
52349,10.017,0.8275437804826383,-0.2245739410416695,-0.50194023889001,-0.11310982703795039,19.398603694343834,-3.149153606544621,-12.200655665746565,-1.6211149939480274,-1.6643753807540749,-1.0467512637446688,-0.029545363523905924,0.45954810296029724,-0.7782151367850775
52350,10.025,0.8235634040193456,-0.2224937720472142,-0.5087182352297923,-0.11595515557730238,41.10774170537111,-30.762784999351165,-27.737974029153033,0.04013009653875279,-1.6091800244609897,-1.284375751621552,-0.05221573561380501,0.4493317895212016,-0.786176260532126
52351,10.033,0.8241623043119343,-0.20981764036642173,-0.5139690312342781,-0.11211105598649806,42.25378438585108,-42.622288461419075,-35.60941637183888,3.158305441621584,-0.8231287139628728,-1.070015778897755,-0.057752214557544874,0.4247593595664363,-0.8041410616017642
52352,10.042,0.8283217686129822,-0.18647565334524116,-0.5198882031533056,-0.09394750967084875,16.718049835699006,-21.635283145974924,-23.480717299130237,7.22161377344973,-0.9228044804256565,0.4894322832038823,-0.07107510110369422,0.38532262895279634,-0.8280708218013187
52353,10.050,0.8314756099093652,-0.1598197281077915,-0.5278397216965874,-0.06701636242493354,3.8549864215963017,-11.256678787564173,-17.081348924655824,8.99956054956022,-1.7845103645806153,1.70421483293222,-0.07050826941707969,0.31680422098308153,-0.8459755062257682
52354,10.058,0.8360427581176747,-0.13001826056024876,-0.5318174216730741,-0.036027607815152136,6.448725867915523,-2.639770780702506,5.619652001493868,10.125015284641737,-0.8943370044052277,2.2782146525440092,-0.07017159144234601,0.24537138337353026,-0.8670690756595623
52357,10.083,0.8448979516668346,-0.09722876597258412,-0.5259644615660782,0.0074433531517595465,10.822443513122636,20.98169967383204,53.12946829543719,4.136788281484539,0.4175809077076575,1.5710694814672663,-0.05736419307695494,0.1554051513280781,-0.8925914641020801
52358,10.092,0.8445253496840485,-0.1025223609616476,-0.5254554260806221,0.012755173315851324,-8.35247362797742,-4.367986755105102,25.58871542314638,-0.40171809479647114,-0.021919902737815085,1.7485118757523666,-0.05571859357047312,0.1638808806540456,-0.8781389867862639
52361,10.117,0.8399723016508799,-0.09417843982248869,-0.5336912244093048,0.027397644431993762,10.243504225138357,-19.475559717153402,3.9519740115183493,1.1459838941831266,-0.8745054447953359,0.5663592554461307,-0.0742714921147254,0.1382475810360269,-0.8785874818427301
52364,10.142,0.8313178512813002,-0.07411060553023262,-0.5489751198068552,0.045216878729449086,3.0144892064126374,9.281631958418874,-1.0711727053336422,2.020924733488344,-1.5659350831355132,0.2325059182362651,-0.11010850072719568,0.0916722993077473,-0.8904429624720591
52365,10.150,0.8283927059967775,-0.06986083413431315,-0.5535896752926034,0.04922864932967671,-4.27106415157825,8.456410642467237,-2.443181202613699,1.2763477656627273,-1.4025478657778176,0.177106456497787,-0.11599115002170299,0.08066033362121146,-0.8851503848270481
52366,10.158,0.8261466418071374,-0.06405909172078889,-0.5572441384633136,0.05345212013546908,1.6046276860794169,2.7588490967135235,1.1030842080011094,1.6438194240278268,-1.1649724301766724,0.024019886402764087,-0.12574586323475143,0.07554515036847782,-0.8876591723601491
52367,10.167,0.8240531753801089,-0.05739989837654503,-0.5604606447297501,0.05937576543872788,2.384218627008072,2.5060787957372024,-0.11811503999545898,2.0494792475665533,-1.0808460841746423,0.24692999960265605,-0.1279085430948105,0.06166676968554167,-0.89554789778283
52374,10.225,0.8320698485541607,0.0042626045877063815,-0.5442606827963218,0.10687331982897633,7.19758238791247,0.29230351016185707,-7.857227834277,2.717134512824512,0.39316441912321554,0.15053000302918867,-0.10499082700443514,-0.08045891421912468,-0.8883164554497551
52375,10.233,0.8365855055915252,0.00496558249939437,-0.536551428878485,0.11051062841677307,34.26059662966994,8.903624006838816,-13.363605601169333,0.830441964278155,2.175407049031955,0.475676266515221,-0.08422298297018979,-0.08166203696744036,-0.8918933073502104
52376,10.242,0.8373581649241741,-0.009742062982206428,-0.5366951191422257,0.10341539988117085,55.12362480283929,47.02913379738446,3.6457185950856688,-3.859678315381073,0.4537626502502054,0.45533856267424666,-0.08591649220932943,-0.05283620831626451,-0.8954246492411909
52377,10.250,0.8351043962899926,-0.029157063456089632,-0.5411691248034227,0.09426818820388111,49.29089674619696,41.83379352002827,-20.301428484903735,-5.176928765479739,-0.6677914040311344,0.7272087960656805,-0.09079873129450307,-0.026956428704261143,-0.8955660705994041
52378,10.258,0.8367740868306661,-0.05619887006148844,-0.5392346653910689,0.076660226017791,23.123573259573064,14.453747462778574,-25.416762052015084,-7.642884568711747,1.3390131502059337,-0.022490926797154923,-0.07568173162570178,0.03796432190914952,-0.8910378586576958
52379,10.267,0.8394402410576954,-0.08411648610012691,-0.5341344297777775,0.0544509814891721,15.284108673641368,4.385318870407754,-27.697742927874298,-8.355979342050738,2.1984548617368955,-0.8079291717526802,-0.06857517041561687,0.09951749991614052,-0.8970592100797331
52380,10.275,0.8470186808942878,-0.1058699669626806,-0.519699685861936,0.03554069254286467,14.808108131222612,-4.924058038948262,-0.31173289058593523,-6.459961630495828,4.541819005368898,-0.8308689953115017,-0.02342877237973535,0.14588377649409298,-0.8924882663202884
52381,10.283,0.8568173274234879,-0.12156880320626644,-0.5006025137091773,0.02195943491806715,-2.132420032561178,-32.008890896373174,41.705547795005565,-4.476267628377135,5.602775492109545,-0.41342961344919765,0.015560978702530892,0.17510185149090862,-0.8758192997825655
52382,10.292,0.8617411295758182,-0.13218980611244632,-0.4896177868527497,0.014230374371830137,-3.7715509837708012,-44.59102408376731,53.40238160776642,-2.9014273939623796,3.1312477063030917,-0.029542838214831245,0.03677363278848823,0.20363669877125656,-0.869485719520454
52383,10.300,0.864128081238015,-0.14079935561912196,-0.48313838662174524,0.00595819147762132,-13.92455737318322,-36.67825113291681,51.40429958053132,-2.6556000071647037,1.9282008301047213,-0.5062588367745433,0.04777555534898129,0.22098805005839908,-0.8730164097561536
52384,10.308,0.8658413152676543,-0.14518307161851263,-0.4787643293253329,-0.00504077936998028,-16.644368418252167,-27.078671478508262,42.221051550163274,-2.1176402728941204,1.4752389393986711,-1.6337636422536228,0.05628135632344547,0.24389484558735114,-0.8640799664428607
52385,10.317,0.8646584375336209,-0.14964651001859872,-0.47922022488559524,-0.017879723201730226,-12.894828146209752,-4.37106466654208,28.10292103078257,-2.4427652192582503,0.21338216253307618,-2.1678268251679467,0.05232357696391811,0.2514069056258018,-0.8523422967092993
52386,10.325,0.8605400577259367,-0.15660114251137924,-0.4838096862784115,-0.02958172875876554,-5.3562435122512015,11.249387061788967,28.763818954313383,-2.9154402474922043,-1.0450386230213924,-1.801789029640366,0.04132184176768538,0.2760484298235606,-0.8488543165942263
52387,10.333,0.8528965265793506,-0.16542032077905205,-0.49353118593425493,-0.040380700000898495,8.693608538252331,8.99109512308402,14.110323118445908,-3.292767778540731,-2.5496254185620826,-1.603978686311515,0.030574975331709345,0.29972511364493815,-0.8478113044547859
52388,10.342,0.8473135431028862,-0.1712227141644014,-0.5002831690792545,-0.04959125492087214,12.788386876353544,-4.517259475390411,-3.159974533567918,-2.431731346987446,-1.7419916295353084,-1.509778418333473,0.0026710546083395293,0.3186894003590006,-0.8314849787688912
52389,10.350,0.843814751166268,-0.17332402921780263,-0.5043554332885753,-0.05967447965595612,11.398295758421765,-8.803754417943797,-1.4976199002249362,-1.7332532901594206,-0.8601993684469246,-1.9995967441957707,-0.003242121928755239,0.3332791148911475,-0.8192336448973438
52390,10.358,0.8402713689659118,-0.17342140723462654,-0.508921730360976,-0.0697690072690176,9.861481492083872,-4.8170068146120295,-6.056798601536657,-1.3237080621441986,-0.9467862353283287,-2.27143481739658,-0.01177415075970253,0.3352462704875673,-0.8221913870853131
52391,10.367,0.8375853981211956,-0.17383203551837467,-0.5118651533688697,-0.07891254050124119,8.029224406156391,2.4394768380268186,-6.622956092019467,-1.2604728880409455,-0.5483203339037722,-1.9568539000481526,-0.02473709774632157,0.33790602251136914,-0.8168642882635181
52392,10.375,0.8350544791085766,-0.17770186193076112,-0.513396185089435,-0.08677800598457558,8.770127558377371,4.360361483141864,0.7914488264352814,-1.8162147673649007,-0.3703933640390577,-1.2163034692768153,-0.031078575199530764,0.3525613180199166,-0.818286682561549
52393,10.383,0.831683013560892,-0.18466356711567355,-0.515033093161568,-0.09457084583959251,11.38210242726731,1.8692232997440776,2.6218596527100297,-2.4625758426513005,-0.55000557232547,-0.8342104612795795,-0.03188433132235738,0.3768954656027474,-0.8015715760561801
52394,10.392,0.8294635505925916,-0.18987407259219372,-0.5156707798631502,-0.10010844914849315,13.000382594586283,-5.469765560261553,1.0832784908574173,-1.8008945865936568,-0.2777777497437434,-0.5391651526216897,-0.03822770930572503,0.3800739415695329,-0.8025607400670016
52395,10.400,0.8283315648587634,-0.18999881718972092,-0.5175651064259549,-0.09946672174868021,7.326281655673495,-12.66060888213068,-0.8104664631799339,0.05689175219104606,-0.5395172932684505,0.029002297542101284,-0.043340792930206484,0.38497192204988934,-0.8057335707095433
52396,10.408,0.8259081976457654,-0.1876153666490205,-0.5228278986188463,-0.09657697284797581,-0.9817928187194175,-15.042428556502996,-15.833512533674167,0.8577188942098211,-1.4229981321816556,-0.024827109443520005,-0.03577144052357401,0.38521723095500976,-0.805943333918846
52397,10.417,0.8262982302519102,-0.1857409618501479,-0.5226764191175559,-0.09767748293231254,-3.928409090304441,-9.906872896302586,-32.713497785833205,0.25424713967781665,0.18040692610899542,-0.4435070694055001,-0.03597998428258967,0.373293123890986,-0.8140582581413612
52398,10.425,0.8311753217628297,-0.1812618597675077,-0.5161944427312017,-0.09917166923827009,-8.85932669086107,-0.6552092674020823,-10.977295406428379,0.7741836303133746,2.0659056483082168,-0.47669781385482046,-0.033085647208418154,0.3722779266934402,-0.8059936199674793
52399,10.433,0.8348942532425135,-0.18648300762096812,-0.5074144886852318,-0.10347081928528809,-12.060894087147698,6.14227635117313,8.723398798176584,-1.613905972289489,2.2889757732565377,0.25050025732817843,-0.009652867335904113,0.3822828928044802,-0.8048662473595631
52400,10.442,0.834983876551009,-0.20492863755100058,-0.49778850189441676,-0.11407360252509123,-9.224176772349837,17.750833648749918,14.876943314841304,-5.2103628045698205,1.958365321891413,0.5598658162583584,0.006622302955309056,0.4153966330616135,-0.7860809279169738
52401,10.450,0.835089000751861,-0.22023819219142524,-0.488152816891171,-0.1258106787388352,6.547392576833708,20.336241296003347,14.081180762203239,-4.722586219346037,2.1127935758777063,-0.03912910293047696,0.008288813731077822,0.4480654279742139,-0.7763952232612978
52402,10.458,0.8328243179603648,-0.22559123845098825,-0.48728039641227394,-0.13442493749412773,13.261956200651074,17.07446909495364,8.996238791965457,-2.223173219455008,0.19713380719724619,-1.1213162493862232,0.01140012380295834,0.4655754275905188,-0.7621371255066639
52403,10.467,0.8274043970256214,-0.2315139987554806,-0.49109476892743487,-0.14362854902499214,19.3845407312505,6.920581334253705,-5.743604496001046,-2.432256590925811,-1.0857914802902193,-1.5140568150332947,0.0011332433891751933,0.47605930062315654,-0.759202125808921
52404,10.475,0.8213550179705666,-0.23235377859137935,-0.49860371748965804,-0.1509370363243296,44.05205357433814,-37.053095318686864,-29.674637897555936,-1.10424167109024,-1.8372093083791678,-1.9729775332982427,-0.01403777617449213,0.48432251153220396,-0.7514163765836779
52406,10.492,0.8266511247494139,-0.1968027671918957,-0.5111309812233539,-0.1290802417482733,39.06850267934155,-37.41896025936576,-34.727723238942204,5.1928512875794,-0.8785307964207915,-0.2509285076903701,-0.03633120921421146,0.42346957624216264,-0.789648675918915
52407,10.500,0.829011190430567,-0.1706666689368388,-0.5229639388481806,-0.10060841375995422,5.105756821842097,-13.200311571607946,-23.22232933200699,9.172168816669867,-2.56742688008988,1.9227248408192905,-0.034973124844017114,0.3581893697713125,-0.820962374008025
52408,10.508,0.8319097688259467,-0.14258406100231139,-0.5315954809428219,-0.07072599749186213,-0.6398203674097815,-4.95418462429442,-14.610267137085605,9.687141030101367,-1.8906902752089376,2.0960122739734084,-0.04511317835501947,0.2965454665892884,-0.8469378629300777
52410,10.525,0.8380554903811921,-0.10048291116824969,-0.5356445088511571,-0.025517439971444067,6.28626580806342,16.507108854031106,26.832350530102758,7.246203264292628,-0.4112720177764017,1.771825710192973,-0.0508266206524409,0.18439899701933074,-0.8802164153559091
52411,10.533,0.8379834671627377,-0.09572833395752506,-0.5369974421306501,-0.015923001751311325,8.648514393885534,31.124355667832692,46.636137681477344,2.199977910799232,-0.45950218675797205,1.2651652506739008,-0.043701408019610415,0.17395025665262195,-0.8904894021424115
52412,10.542,0.8361615205923666,-0.09885119013255585,-0.5394263642693554,-0.009030571475995031,-2.1645090888249987,15.173389530859385,35.15042899677035,0.24512614779336225,-0.8860707250869467,1.7206388998428264,-0.047583986652656396,0.17055809118005208,-0.8958939135981017
52414,10.558,0.8394065003691764,-0.10426348013748298,-0.5333997149519748,0.003255447241887956,9.181635493332202,-20.433619397693132,21.45583144957065,0.3003826070246713,0.6776225630537962,1.645408695420694,-0.03468658603895618,0.1780806910182814,-0.8862795636673892
52415,10.567,0.8388533858860586,-0.10023115797932512,-0.5349807465410901,0.008620486526700881,29.939095448903792,-28.771445962298287,13.587928137572414,1.497895425817426,-0.5121551385152968,0.5128356371547022,-0.0361445427809508,0.15684772753719267,-0.8878526862557415
52416,10.575,0.8371950897647052,-0.09098816533358493,-0.5390107152544612,0.01711678369232976,17.227224751146636,-5.293287183195634,-0.32987264146438444,2.9153408422111404,-1.2465264332853174,0.41498287029592124,-0.04489341103774656,0.13394210309710491,-0.8970343360419539
52417,10.583,0.8345384207734304,-0.0816662496826265,-0.5442146172037946,0.026583798402244993,0.17256549225347423,8.124973414776134,8.105412321037162,3.0294348330234646,-1.6186504334189171,0.5768106677929435,-0.06707645427238879,0.11786531097900019,-0.9047772881725693
52418,10.592,0.8306433855736934,-0.07476462959308801,-0.5507183225570521,0.03392853319003729,-9.810231735630815,10.877149701640759,2.009953705447347,2.235772244959611,-1.9979347436720805,0.45834206770706865,-0.07392588415690368,0.10051630186958627,-0.9017166617722585
52419,10.600,0.8269272809045526,-0.06984047995814478,-0.5564879443767545,0.040432007350041856,-13.6788084502958,10.119302429300028,-3.607875889312555,1.7401817440037632,-1.7834564538696651,0.5628725283972964,-0.09248872988533587,0.08952073142715057,-0.8998976729690195
52420,10.608,0.8235638669394247,-0.06487730178584337,-0.5615733026032663,0.04657165004625547,-9.023974852349571,4.531437156746724,-0.3604508521338953,1.7113887538755006,-1.6079140387143462,0.49476904669022403,-0.10887019567594282,0.06898621981776534,-0.8944526851331045
52421,10.617,0.8203578374744217,-0.05841795048199014,-0.5664839864469059,0.051925472121070196,0.7854017557905426,-2.2891660283804005,4.755297175480706,1.9036991346193353,-1.5457896026044895,0.1355661923839687,-0.10834956327485998,0.05827928856842896,-0.9018261345488824
52422,10.625,0.817025046673977,-0.05053320187996362,-0.5715382574949583,0.0571006903178153,4.716274191632888,-3.243527117425859,2.1779995034037816,2.1558433047387795,-1.6202518694315822,-0.09254502885108422,-0.13057768584635704,0.04679192922688835,-0.8992931465867134
52423,10.633,0.814444343413982,-0.04257876064152905,-0.5752233519825153,0.06313125974664639,6.837489016097461,0.6135452898679802,-4.90047594090648,2.315637875748543,-1.2469040223616576,0.06690600242241551,-0.13859201270083757,0.024621060413297268,-0.9089563410569116
52424,10.642,0.8137424765417185,-0.036254489795394244,-0.5758951800827624,0.06966731944655741,0.10090512547850432,6.224217916713316,-9.561772577849592,2.1328549112736805,-0.38966496418342933,0.3923145653239047,-0.13722217781176158,0.009136151080245066,-0.8872956363381094
52425,10.650,0.8133776924563226,-0.032912482797530264,-0.5759358364990267,0.07504272201017594,-2.23003613128959,10.857415289198142,-12.622133600548937,1.4037198060507814,-0.14599315366516874,0.5769088434490884,-0.14154145063796061,-0.002500487879543577,-0.9044606088647852
52426,10.658,0.8149879522671747,-0.022775508847878687,-0.5729875050232599,0.08343400351953209,7.322113921409841,4.311716397456688,15.58521966050498,3.215523929855824,0.5495747070210565,0.20597110356699017,-0.13691316857830885,-0.019845983722364593,-0.902082051592575
52428,10.675,0.8176225330856692,0.007741079626386343,-0.5671364419709438,0.09894304050983246,14.003112474686928,-3.098629788126535,3.1260476212480235,4.12464324772546,0.408186336653042,-0.622004488909771,-0.1276741075274057,-0.08800376474577563,-0.8933350717379742
52429,10.683,0.8198312982795872,0.022002787062217113,-0.5611301940774787,0.11191704524902447,25.344512217150772,-0.8289765474152787,-23.592415652967773,4.715749100874483,1.1791164097513727,0.5026931286170275,-0.12154844988034585,-0.1250892910394061,-0.8983690097293346
52430,10.692,0.825023247396678,0.02488094469622748,-0.5509457570219093,0.12319234012558616,16.19062050778062,1.6568570270527823,-12.55162293715143,2.348062064334027,2.692472313469651,1.6060965721586962,-0.09714734064806219,-0.13145092732843444,-0.8953627315602348
52431,10.700,0.8292436048898105,0.011946166294031942,-0.5452421970210198,0.1221608752748535,22.807819348043363,31.993642434754246,0.4411624884783743,-2.5371062659743067,2.083945301407423,1.3363992689090418,-0.09443321103248739,-0.11677103895373668,-0.9018723434524112
52435,10.733,0.8234213259809822,-0.07793744528518735,-0.5586195609510975,0.062026290111072746,20.043426328254906,16.31423936849869,-14.732067133430185,-6.536312873292609,-0.24142634938405108,0.022150899734793072,-0.10075185401829158,0.08516723884479244,-0.9084999079121112
52436,10.742,0.8242724142298289,-0.0946899729187097,-0.5567660457783721,0.04025377543410171,3.2189101167252665,-6.7890700707367175,8.577995645988299,-6.188724538664868,1.1726527905556483,-2.009344366899453,-0.09101063489954933,0.12078559606315815,-0.9029151100742582
52438,10.758,0.824265889741012,-0.11588308749704465,-0.5542140147732033,0.0019180382106792691,2.877157715991589,-10.429851877320633,16.14616887418139,-4.647148835425149,0.7783019565620325,-2.3395309394255484,-0.08203362920214669,0.19152583724532743,-0.8900849615339655
52440,10.775,0.827204484022287,-0.1388540776442412,-0.5436372482659849,-0.030179944214282547,-7.114317457253154,-7.32553737194256,31.83146727244524,-4.369723971229544,1.699054179665248,-1.4956842327356275,-0.06986025285764959,0.25838446623355044,-0.8823864719688668
52443,10.800,0.8225868982956178,-0.17161059305184956,-0.5387139695143337,-0.060727737936607455,22.6521932100814,-19.113080563087156,24.236900241023456,-3.554535988184698,0.3863768629776728,-0.5462228218431953,-0.07345534717868359,0.3302130634553344,-0.8420177815540557
52444,10.808,0.8187807495238396,-0.18115254123305305,-0.5409402656628627,-0.0645404524200007,0.8438127513179943,-21.24026696860933,13.95468758288691,-2.4929433833238455,-0.8966935966475552,0.3491235887267509,-0.0783578529421304,0.3521643873188197,-0.8375393662787827
52445,10.817,0.8130821981808911,-0.1876670461409804,-0.5466197371608446,-0.06989479050872671,-15.393829121710585,-14.552769488100337,7.026865143669021,-2.1275680276313356,-1.727310850263858,-0.5324865164199053,-0.08788706117119142,0.36729273430464343,-0.8357995804248113
52446,10.825,0.8079273313480375,-0.19023148496960912,-0.5521849193402908,-0.07846798226189092,-15.276618899142468,-5.14028622764682,0.959896658208182,-1.7625062589019465,-1.4184932722592054,-1.66307893297314,-0.1020750554342027,0.37336573140057244,-0.8294848996773155
52447,10.833,0.8038591508771915,-0.18958579474974907,-0.5567742234390176,-0.08871390022981493,-2.703010662025334,0.9991166452543976,-0.14340143681656273,-1.33241107738659,-0.9611072271864105,-2.3565421501867436,-0.11649107169687005,0.37701491666690556,-0.8268450327181852
52450,10.858,0.79583864313937,-0.188855169270558,-0.5659033855843827,-0.1035757563815454,8.062707313955086,0.7571422653320581,0.6148778787521089,-0.66802201780633,-0.717133922163667,-1.184439933312727,-0.14636408646851157,0.39229956980416303,-0.8068828092361384
52452,10.875,0.7916058391090472,-0.19123727498078275,-0.5713116885321659,-0.10193848484704376,-1.0184875777557005,-1.0369416206638231,6.233401638460622,-0.13532461361241888,-0.863855240601071,0.142983769245756,-0.1525061042671707,0.3925015484213045,-0.7981195364880453
52453,10.883,0.7867675136610166,-0.19025597690700374,-0.5796901732854103,-0.09358870495500629,-2.4795025415025695,-3.5986717763441987,1.3728180755821777,1.326995223805721,-2.6020226497369894,0.9519684027746458,-0.1710154362826755,0.3832734971358759,-0.8084991234969497
52455,10.900,0.7838282287822098,-0.19377088976624904,-0.5850631656904817,-0.0759423610086756,12.651149719636237,-7.854569401311943,-10.61054884299942,0.9065538329059549,-1.1464920058448718,1.7480505290385844,-0.16270809317380727,0.3730267353863084,-0.8099767073609644
52456,10.908,0.790498395183826,-0.2292666393949917,-0.5601719649885818,-0.09357598470309487,14.097689867936042,47.83755273141511,78.99657021302413,-9.280893822887549,5.823021291252644,2.957800920847073,-0.1281512148699357,0.44492794011767867,-0.784577338999891
52457,10.917,0.778512038172804,-0.24915289331560278,-0.5663093684098481,-0.10552507485773109,-9.896109855566095,9.237374490113861,-47.919809868245046,-5.892600551559914,-2.566826171956158,-0.17067648761588294,-0.1458647323946655,0.47407692087150083,-0.7537528532515488
52459,10.933,0.7652669564299863,-0.2534724790916735,-0.5781581352284899,-0.12590217793438624,9.933336068774103,-0.7051904399754495,-24.623198948447392,-2.0362121433804212,-1.45942877962864,-2.1212170686685097,-0.17745321298132896,0.49277247690315695,-0.7323169189212151
52460,10.942,0.7582083102003095,-0.25272041543800816,-0.586771566032186,-0.13019861466301297,61.723614779771495,-61.597732900509264,-37.97161806518183,-0.6308107655492597,-2.2751790092714708,-1.6179382685434036,-0.2040707932050788,0.49667165543006764,-0.7309501085106781
52462,10.958,0.7707645712344287,-0.2242870807679485,-0.5878176823562402,-0.10043731099415926,39.92277236393487,-30.70353089036033,-31.80729331244414,5.094942038108577,0.334048003341526,0.8380826146116251,-0.18604913194521777,0.4287738561345304,-0.7763637171502121
52463,10.967,0.7738763254542631,-0.20733393234323558,-0.5935946438866032,-0.07598336758551512,17.018767357508054,6.812687670151774,-17.239460083688883,6.8799522710082,-1.4992389038357248,1.8653586517965415,-0.18792748165854517,0.38808364595141004,-0.7934132023855516
52464,10.975,0.7737803084203215,-0.19120735114910065,-0.6015409091706344,-0.05340709467536218,13.785338546865088,4.042772994642756,-10.324306253543224,6.368891786419449,-2.3128342261493073,1.4734271072759613,-0.2017781482184298,0.3427442774596464,-0.8083401981760994
52465,10.983,0.7717553882511136,-0.174477233103923,-0.6106321367174821,-0.032858932447890385,11.909936070520772,-5.543104753110124,1.9075362244164642,6.0918266876654465,-2.68380700272877,0.9350068101054948,-0.21539032430056668,0.31131490905015496,-0.8219786942023414
52466,10.992,0.7677952691126172,-0.15929849202289903,-0.620390939410108,-0.015149173751656808,13.747952243904582,-4.531660243899781,-7.500096558460916,5.331077728734936,-3.007975961525249,0.5985298825416498,-0.23267610371687678,0.2679099056666109,-0.8330051479798063
52467,11.000,0.7669557636367151,-0.14805993614230253,-0.6243596673892472,0.005667245499298957,7.944893923559448,13.997917739219979,10.187439080047593,5.149989135561648,-1.5795067150803055,1.9827268783233432,-0.25196025362228053,0.23788329644484793,-0.8337220709175429
52468,11.008,0.7672411020669018,-0.1478536417714917,-0.6236869385149931,0.02224847500096545,1.4953242487403107,26.205083909337194,30.362794555534208,2.557005441300452,-0.409098630049452,3.027179676369491,-0.23854114447662667,0.2344559983063491,-0.8317264769473106
52469,11.017,0.7678390270577183,-0.14964129116693073,-0.6220917785980126,0.03213302826861327,15.095177032630467,21.131547721624557,42.692055689854286,1.1923944283094752,0.07025357629702321,2.1272518615832325,-0.2348379975579104,0.2166784390965023,-0.8410730482746464
52470,11.025,0.7696086160939147,-0.1519134793045479,-0.6192818437370579,0.033389681897657876,47.760224605939406,-0.7996420510202881,25.22849062748629,-0.13309713670583048,0.7568300467272439,0.6465878019599266,-0.2248221540197915,0.2286482186262335,-0.8424365670367501
52471,11.033,0.7725211851056171,-0.1515419677195622,-0.6156696878958288,0.03459604007613379,47.325222152395966,-1.7638974912260343,37.77663195553871,0.3899759835635905,1.0691556732048224,0.2625237719378107,-0.2201631470785334,0.22720564241711894,-0.8470618182668943
52473,11.050,0.7613075143144473,-0.14910862410204515,-0.629446816306758,0.04443188391278726,-16.249737542803544,-3.764319288526424,25.672849109645085,0.7033868762316912,-2.2929633879714926,0.5275385411570724,-0.25270623688597327,0.22102256296794606,-0.8306323272167118
52474,11.058,0.7531097604063748,-0.1476876677472541,-0.6394232337912917,0.04638932704746714,-34.56440850263169,2.813459374159287,15.206255071641273,0.16425062834563942,-3.131957730056004,-0.11814426788417931,-0.273456837139388,0.21711752899671385,-0.8309862354194689
52475,11.067,0.7454137896657785,-0.14816091493652878,-0.648467431355023,0.043550154225805576,-10.981604473218876,9.592971573060247,16.798825891947107,-0.8878024712750129,-2.713831008203532,-0.6670229009589453,-0.29231242684110753,0.2256002848558672,-0.8180885353945954
52476,11.075,0.7386319849282743,-0.15266195651420753,-0.6556278445195364,0.03562649807148874,7.0319250172411225,9.119238368832107,3.027845975952364,-2.349625497914516,-2.003830018904297,-0.8874580522947225,-0.31239615863997144,0.23187760274666616,-0.8034977818274058
52477,11.083,0.7318762822666611,-0.15941553640377423,-0.6621284856753307,0.023014401272263244,14.507362236572037,13.42406432470307,-6.98481568785481,-3.481026001127596,-1.702773355426112,-1.338625318275352,-0.3217337175490583,0.24743684201065144,-0.7897919449242218
52478,11.092,0.7372287470666459,-0.16220545841521125,-0.6558065586688949,0.010045962657526062,41.80244646298035,4.069292651265714,16.314431033903325,-2.310497603702943,2.473330746588716,-1.6287751483945951,-0.29876897837419303,0.26283509076774575,-0.7932795244958434
52479,11.100,0.7606495996994658,-0.1499064020856034,-0.6315479561891519,-0.009350728532966129,46.57588460696963,-133.36367640110973,136.2505912744312,0.08372364823457075,8.684015205170608,-4.531672668328821,-0.2686466398927854,0.2556128410112586,-0.8144227087469466
52480,11.108,0.7583198084114238,-0.11057067156676906,-0.6421889627004326,-0.017847435274505725,76.10197520327581,-73.80582748058333,-64.5517840774998,5.797419365227367,-1.9373299086706395,-7.930088397761165,-0.28199679174586206,0.1885580888502157,-0.8321372785700646
52481,11.117,0.7844390674839699,-0.044897210808507275,-0.6174891106157069,0.036698612201550865,0.7437035866426399,56.31470355166639,2.4341755363422144,20.98882558879637,7.36677675745676,0.43754485174119884,-0.23793644241419606,0.045860430671189875,-0.858263801963407
52482,11.125,0.7859809572805176,-0.03604402755055086,-0.6156842562916202,0.04321642540714465,-7.7773694368021244,65.60494316214299,12.77175418360126,2.6645698948030043,0.42460473505220336,-0.10477854429331893,-0.2320681859551993,0.028291876611670156,-0.86027549914764
52483,11.133,0.7868928453271071,-0.033831055939448046,-0.6144815114434944,0.04547066880034188,57.00346083821647,118.95454793895041,2.085538559137645,0.7812261809670342,0.318893189714684,0.0857538781491847,-0.22498711523759254,0.02878132333304651,-0.8604862332909733
52484,11.142,0.7911122609800583,-0.02835675103045441,-0.6076195476577306,0.0643099564782337,34.97967941042202,20.804895329725003,12.529299612948439,3.9313929697056045,1.7237596074349701,2.7319984395765635,-0.21598253055296351,0.01043936771450834,-0.8539427792837028
52485,11.150,0.7879122041837928,-0.03179882161831599,-0.6101460466568096,0.07684396652301356,28.911671744228535,-25.622759386931996,4.905796839111773,1.1362087502431029,-0.9653334059341258,2.9052712553754585,-0.22009608215979864,-0.007831151483307756,-0.8623494230838261
52486,11.158,0.7863646801048049,-0.03572308742457698,-0.6106224922530625,0.08657148989813593,36.327596246402706,-28.76306579774153,-23.943387237512706,0.6684292841240156,-0.3007810907210937,2.4344526130617012,-0.22210088888460072,0.006028491777799667,-0.8505727372862684
52487,11.167,0.7833942914641439,-0.04497597139005209,-0.6132269453854559,0.09068218982874279,65.32703130660948,2.898028306723291,-17.771245732505015,-1.2040288623642394,-0.7601355025528549,2.1717408427769427,-0.22504464064338617,0.014069815559012768,-0.8473731827229827
52488,11.175,0.7856238948076838,-0.06636288407895306,-0.608759718939487,0.08833271263040557,66.11007389054569,37.6822866919131,2.574014724322572,-4.2348691597090244,1.6812003297725902,2.713216666431443,-0.21398216977965684,0.05516928708825497,-0.8647060000569468
52489,11.183,0.7868040863590696,-0.09328719963308607,-0.6047271724208932,0.08088185834362445,33.51367946936938,25.067056486990044,-0.11738703738187367,-6.040462749371571,1.6341365674762258,2.5786424760278854,-0.20180941233927718,0.10054261715708318,-0.8568664298531732
52490,11.192,0.789269950547418,-0.12122284197749399,-0.5973438012592941,0.07442009703616703,8.248595666691225,6.156610778413666,-3.6388820721282,-6.006052960750696,2.463598843808699,2.9679833810858143,-0.1742356665690024,0.14935612734191742,-0.8535815650718489
52491,11.200,0.7894516184256887,-0.14390015072329082,-0.5923131769888578,0.07227716895563219,-18.258560254629867,-26.75256350938859,27.444500239114287,-4.485087773902667,1.4601604939411663,2.9928026787301167,-0.15984734473451223,0.189378333963806,-0.8499084224636718
52492,11.208,0.7914145856164232,-0.1518303032926674,-0.5875916932222746,0.07311986550741663,-4.5489403924264495,-61.006656080981244,34.68265457616476,-1.2331605473272267,1.2986384102494908,1.4153752838203972,-0.14934731853568112,0.19231032993660696,-0.850336587216769
52493,11.217,0.7935977591444773,-0.15042948760296562,-0.5850469483146186,0.07275736531874814,-5.228628645148753,-77.82607961404307,17.268133305749565,0.34811824959398135,0.7780846388428183,-0.22571550016716874,-0.15084650218042112,0.19617906015304595,-0.8425119410627138
52494,11.225,0.7969468849507652,-0.14371878713688277,-0.5824478606496912,0.0705341223506269,-3.6744862560307525,-39.97544823591987,-6.292706219754232,1.1142295787123855,0.9320110268387366,-1.3471527946228863,-0.14345772440491955,0.17867140271446963,-0.8572122565015947
52495,11.233,0.7993287041898939,-0.13628634807409418,-0.581210650593819,0.06851155831713317,-5.213391311983156,0.9405832103972314,5.255185943671677,1.2455990631522214,0.505943749859927,-1.4398634757536817,-0.1463923842030881,0.1618200379484821,-0.8560852355899321
52497,11.250,0.7997231678673211,-0.11754865728710162,-0.5857009101911025,0.0598298566567762,-20.331673757449273,20.86028127502271,1.5403472927491395,1.146287192110831,-0.4206532689263801,-2.2291565145641963,-0.15764925772190588,0.14933973209781726,-0.8500908401370665
52498,11.258,0.7965204992596702,-0.11055035756563385,-0.5921464300785355,0.05192608252585898,-3.698686771988021,14.641028473861624,0.6792084900597525,0.028883619685398668,-1.5708001546579593,-2.6369967454479966,-0.15960025276578393,0.15080690117308204,-0.8505806526522095
52499,11.267,0.7928117208711037,-0.10528417688034931,-0.5987517738530799,0.04314082354124545,12.703473267589162,4.439818336397931,-5.413576297217494,-0.4238636482674227,-1.635335581051021,-2.5557590909540515,-0.16986589265256014,0.15323539735813507,-0.8479284339822347
52500,11.275,0.7903584783534217,-0.10085717983861157,-0.6032149729786055,0.03595832788501592,20.845034931130776,-2.9051583255074394,-5.6139243023956675,-0.3036485297312894,-1.0728227845238156,-2.0889828151382646,-0.18769198820576355,0.13980313310859627,-0.8470944848059395
52501,11.283,0.7893112090077743,-0.09669056680990509,-0.605477887263755,0.032175730905211974,24.040832032949243,-7.976428029968186,-3.923557312147365,0.20175066263552152,-0.5325447830618366,-1.373287147731487,-0.19306628435338355,0.1417527223720516,-0.8463762719117434
52502,11.292,0.7898567680117718,-0.09254293805995097,-0.6054621715513874,0.031267386547474366,22.88821278504298,-9.842744887913646,-2.6481842989798965,0.658704290413087,0.0732935128489735,-0.7877451099509685,-0.18890188745189523,0.13590863893714275,-0.849559931747601
52503,11.300,0.7920713855840361,-0.088199450819208,-0.6031623493258156,0.032232861646751085,13.167235153147384,-10.639987221651706,0.8626253554138948,1.0381846357650006,0.7009938318202545,-0.4300706051179917,-0.18087726920882494,0.12708454488599685,-0.8422426833360277
52504,11.308,0.7931045427707004,-0.0846984840920449,-0.6022230434467464,0.03374547333682437,5.017825964331252,-8.103846920052577,0.27100229283835364,0.913858882494648,0.2732808898481337,-0.21891687110901384,-0.18231091675540462,0.12125919887291674,-0.8493571437792883
52505,11.317,0.7936539085088116,-0.08120289247282331,-0.6018258422152791,0.03640356307566906,-2.3622740574229537,-3.429777494306967,-0.38777712205913156,1.07383673365789,0.07192873100202825,-0.009175078593547256,-0.18255920543333384,0.1149069312948028,-0.8484121209341675
52506,11.325,0.7939730618737582,-0.07731375641820433,-0.6017911686440212,0.038428497620633294,-8.415163561596987,0.545327783685687,1.8468879619059682,1.041903348692417,-0.01657724222945839,-0.1893579783243428,-0.1712921689604076,0.10249571968713142,-0.8567231855057625
52507,11.333,0.7931889054125382,-0.07374422289430771,-0.603225925493578,0.03913607967835896,-9.12735845802741,0.21437138454898094,1.3850230113267847,0.7627281998022052,-0.4353683877776803,-0.40984064017473826,-0.17867079919393847,0.09584427311613951,-0.8443360259528235
52508,11.342,0.7925663060796905,-0.07075381855155151,-0.6043475439683939,0.039957398901066976,-8.646549476868884,-1.7203338842810765,0.7417533477263863,0.6662751416115039,-0.34282456680945117,-0.29903255555264485,-0.1895842402849653,0.09812114750521593,-0.8609748932792805
52509,11.350,0.7907625885454793,-0.06808490715728623,-0.6068870985832274,0.04179741077469868,-5.719652812656782,-0.22668375312442338,-0.24018966316349702,0.7291759291410669,-0.8025636437246496,-0.07075398117728288,-0.19133807692003335,0.09270092981528283,-0.8507544644086165
52510,11.358,0.7891654494114867,-0.06547795992903502,-0.6089661046257726,0.04572541564174657,-0.4157288941636369,-2.2737794557311894,0.851688076193886,1.0298579837367203,-0.7124133449570176,0.3400589505830061,-0.19501182923820487,0.08780529151265501,-0.8481084609095608
52511,11.367,0.7884280417256413,-0.06312166810761521,-0.609719936335973,0.051366110135377265,0.8808644558867742,-2.105583092354607,-1.0369157198602097,1.2638616949139772,-0.3623514591973103,0.7079610045621518,-0.18960839022162343,0.0751452577332704,-0.8554698588298423
52512,11.375,0.7870302805547317,-0.06045692633612311,-0.6111233977588665,0.05879192342139585,-1.1603743436076253,0.1543235544456756,2.7666133758115583,1.56610292887866,-0.6072774140956778,1.0003249746897576,-0.19108932587797142,0.07708079393035418,-0.8518048842373604
52513,11.383,0.7853148281526343,-0.05797719350532191,-0.6128834196079762,0.06552236020228952,0.4236586403797149,1.694389682621325,-0.5108444849560658,1.4196794349892539,-0.7131095911445486,0.8950126357896525,-0.20208167114559075,0.06266963623806268,-0.8504573602744676
52514,11.392,0.7846102667316158,-0.05492126045741073,-0.6134310435194144,0.07122316572432605,0.825987678102711,2.6183316250942483,4.1585106074832385,1.4105998113671199,-0.3284526072153264,0.6170676891446127,-0.2006100867374294,0.0470518425308626,-0.8519906960083583
52515,11.400,0.7836890438188004,-0.052035851579890546,-0.6143530525774163,0.07545912494549858,-0.46744338454463635,5.517854617390496,3.4478173268051644,1.150604286977303,-0.4133501877491624,0.36492949151154813,-0.21306539709148434,0.04582646909412527,-0.8510746308243831
52518,11.425,0.7770282344202079,-0.04418658478565626,-0.6228610619283258,0.07949066720259401,-8.666611877183458,7.456461669724685,-2.2929731751467264,0.6203068911321103,-0.9251374522029006,-0.1343978005470185,-0.21915999834589386,0.03216412009470203,-0.8531200700519277
52519,11.433,0.7740187541831958,-0.04073293375678852,-0.6271558687119383,0.0768850611005336,-8.687297268843198,8.895049356188318,-8.024197730915844,0.1480296692131246,-1.289808716679329,-0.9894399420649433,-0.24601316944705073,0.03704921859755119,-0.8537027300736709
52520,11.442,0.7720332319691148,-0.03697532514850282,-0.6299510875420357,0.07588900691201382,-2.6710592038571983,9.37271466510408,-7.5404636291023985,0.4837514361932028,-0.8819996351203487,-0.7476831377975449,-0.24311219064200082,0.025787259650437867,-0.8471520899614507
52522,11.458,0.7675424425506548,-0.032426801834905025,-0.6351760517762879,0.07986541589462155,1.933581448095187,6.1324843078547575,-2.0654979500175683,0.6654851481376867,-0.8813741770325305,0.036677126840292756,-0.2528743186114227,0.01675767371555768,-0.8479706664663408
52523,11.467,0.7656191056206118,-0.03202843765986209,-0.6369041158843234,0.0845855274817821,0.3502146734820396,-0.48002690592990455,0.2514024134995538,0.7601207207721572,-0.6489523181107346,0.8270908658216272,-0.26488335234207167,0.026472829544634095,-0.8374784775617826
52524,11.475,0.7644314583911908,-0.03213940889854874,-0.6377033963773603,0.08914023819997467,-3.1941798232100136,-1.8548322158976218,1.5592645910672058,0.6641822823752895,-0.3577262084616673,0.8622069161273902,-0.2651164262038101,0.00963903111161106,-0.8400017075927696
52526,11.492,0.7633805712001921,-0.03122080739776388,-0.6385643961696431,0.09225441259907045,-5.908209417583009,-1.8573421226080418,6.16684450133901,0.3214943394068841,-0.17922049295691767,0.21592535345717076,-0.2692175522912233,0.011646003729416928,-0.8512407775577159
52529,11.517,0.7623423359508371,-0.020965204771883614,-0.6414024803528883,0.08365094860823091,-8.01934107638604,-2.384614255404024,0.5846013346605954,0.16932270199888855,-0.28544137588274565,-1.0556881700520844,-0.2653550194291427,0.000611787354459471,-0.8412667858051593
52530,11.525,0.7613529924610855,-0.0155351455851941,-0.6428334759536141,0.08285772333096983,-1.9441386344783624,6.35579394422285,-6.370947176199842,0.851832634911136,-0.5217536729439252,-0.9746443148796972,-0.2754052375065793,-0.00651271069380863,-0.8320675105437384
52531,11.533,0.761527001474625,-0.010559471896246344,-0.6425177857149397,0.08447495852801343,5.294778992398609,3.41417195898138,-1.8553210084678364,1.1734131326678827,-0.023476644578495073,-0.4879357580933319,-0.27072780790603473,-0.018189166674983347,-0.8408922499737136
52532,11.542,0.7625563030421991,-0.006625134568860118,-0.6411357729612737,0.08607504232882332,11.571724939305177,1.2397449518433756,5.987871351227034,1.0085016009677032,0.3276254172915405,-0.34355648646138903,-0.2748855682140238,-0.022347707173385915,-0.839221417121922
52534,11.558,0.7648354299583665,-0.0035030028212450445,-0.6391665586644736,0.08050220081867024,10.910135444624482,3.912824609697536,9.013825343545221,-0.11440471308975572,0.32329194939258593,-0.7816719032946053,-0.2704685883858812,-0.022323114307235693,-0.8443289838265173
52535,11.567,0.7671989014952544,-0.0038963560958683177,-0.6372354301587236,0.0729497806992995,3.7086240320195163,4.185503930056893,8.678980021664811,-1.1730552142518131,0.7251411355484197,-1.3721023374637205,-0.26876087639426327,-0.013535324010882947,-0.8440351925252697
52536,11.575,0.7710422140112013,-0.005157989039336555,-0.6335906999227868,0.06348326025912822,0.2780050377923739,1.7301194462572278,10.249259870539392,-1.6098811291942356,1.2813906813207685,-1.6215964731164143,-0.2562756861074066,-0.007150265944568709,-0.8517624581587088
52537,11.583,0.7743449421354546,-0.006789797804052495,-0.6304571829537671,0.05354950697271119,-4.176941792976568,0.027565974094719732,4.970122147958007,-1.7490216721890393,1.1110061770337258,-1.6392920114253824,-0.25384513658119273,-0.0013026692430669795,-0.8492822875672149
52538,11.592,0.7756078438921625,-0.008036080017909123,-0.6295388233619411,0.045263271986895864,-2.9438429395054033,-0.920837608072438,-1.8359788126002472,-1.4676480765282491,0.38402627861016986,-1.3700120765237114,-0.24675362820976987,0.012137792628521873,-0.8518723092690329
52541,11.617,0.7763706738912921,-0.010603606629654202,-0.6291722603347254,0.0357548188824532,5.026547773050515,2.1614205239171773,0.14717420564717973,-0.6248118480350133,0.07364566571892273,-0.4681619575184919,-0.23892526177815396,0.01801466655163101,-0.8554719632273067
52542,11.625,0.7763746032835314,-0.013225199021270336,-0.6291549185877857,0.035094984028832196,7.150893120688084,5.305200774480678,3.9662173662057647,-0.5594021269296496,0.028700812595674537,0.2723412771934253,-0.24553433661641752,0.027761441780043427,-0.8515478698067289
52543,11.633,0.7757004590559315,-0.017306291149636558,-0.6299502624421347,0.03394049139518729,2.853445437081969,4.19278344766636,5.160039472654833,-0.9319250468677843,-0.21072265263519552,0.40091335247563614,-0.24773590617182714,0.029709859954634474,-0.8505715983698556
52544,11.642,0.7735508542509263,-0.022344886717569006,-0.6325002593626258,0.03260680652029539,-0.0910579681321402,1.9794463312961679,4.023772332472966,-1.1408230315994699,-0.7520578584873158,0.5246099658896396,-0.24745997715828522,0.04585808849346128,-0.8578173002559075
52545,11.650,0.7697018483748133,-0.027118190342406222,-0.6370423356416642,0.031634332001199486,-2.264176625882636,1.7390682648700762,2.368678693609194,-1.0776812316839635,-1.3830259128438493,0.5527213928729715,-0.2645851276856167,0.05192288796734022,-0.8498065233084254
52546,11.658,0.7652389585670522,-0.03134088348312517,-0.64224499731418,0.03079689495094782,-1.6736539370003143,1.9727845009933511,0.49567690704081996,-0.9444771256384268,-1.6057984475937999,0.49811924046539835,-0.27023144903887675,0.05579513145037209,-0.8427324906545127
52547,11.667,0.7612271475926105,-0.03532546559621024,-0.6468078890019127,0.03041210241529861,1.3525156346569718,2.5664981266923568,-1.6175515373865823,-0.842756903086173,-1.4221644018363564,0.5409090874597835,-0.2773470381424201,0.06698682506562763,-0.8346532098391795
52548,11.675,0.7583834584807927,-0.0392536261752457,-0.6498781214615394,0.03117867829826433,6.104377225177404,1.0911708740269743,-3.132440922018113,-0.6164226157943669,-0.9786855072097739,0.7469136342461749,-0.2861191370451526,0.07921245330025783,-0.8385393796423629
52549,11.683,0.7571290727569657,-0.042544072586434015,-0.6510393527026268,0.033065545609925556,10.063433744746156,-1.1512527447017398,-0.05238198782726599,-0.3114684577252939,-0.3967795314783091,0.8499170200839731,-0.29102113420805353,0.07699413335439624,-0.8341769010490752
52551,11.700,0.7580471336257028,-0.04795550691870222,-0.6493544908609272,0.037464086226304656,9.507061865713705,-2.742097781038077,2.4961166323362494,-0.11362237440783786,0.22615915566484374,0.8199363064182604,-0.28515979176103556,0.08261164530601349,-0.8346125330590685
52552,11.708,0.7596785553390676,-0.05035150372291145,-0.6470388679669103,0.04115728332735322,5.141945563853258,-8.542325457258812,4.006726330557045,0.20775608245420105,0.6573763779452646,1.047883474794692,-0.2885692007736616,0.0845741165469761,-0.8365712422565363
52554,11.725,0.7625040021642644,-0.05342523863393615,-0.6430002866974789,0.047791441360840216,-1.8801865766162573,-6.118793345697903,4.888578164875127,0.28555584351095814,0.5659985709932582,0.8414816680762256,-0.2765839343949989,0.0845987094131263,-0.8416456077809237
52555,11.733,0.7626201985957171,-0.05498320735716472,-0.6425760096959153,0.049833235554429846,-2.9609050379457993,-3.489695561436344,3.6851756721516806,0.061369104175234473,0.08712101801621165,0.6124091663760816,-0.27073541818298436,0.08898147921709187,-0.8391574695736207
52556,11.742,0.7619275235247386,-0.05648540777793008,-0.643131986302747,0.051547025112059275,-6.53156387889877,-3.2285377844206913,2.3151668421319265,-0.014151275276226102,-0.21134075203459413,0.5389099549558916,-0.2736372316620805,0.08901192752756358,-0.8455178437881419
52557,11.750,0.760917232030446,-0.0580501181745614,-0.6441096935709618,0.05251525899170344,-6.378758402421657,-2.49111861740007,0.26421472285023057,-0.13632003008733767,-0.33009992681764067,0.41334620132853767,-0.275592469580891,0.08852130971732293,-0.8450404830556261
52558,11.758,0.7617838790373861,-0.059129523247513034,-0.6429784397888678,0.052609382109549865,-6.000269065728555,-2.3315171869088296,-0.6343848543634499,-0.14551816670892492,0.3530277989154947,0.1793715728833366,-0.2729177355424407,0.09217166607252039,-0.8425697811566814
52559,11.767,0.7629939449056891,-0.06015200735984266,-0.6415821397164957,0.050934605570665765,-7.466515592262293,-2.333969059358738,-0.20783085752828326,-0.38998578094388825,0.47473189265878335,-0.15143078618984912,-0.2687610770522188,0.09779386237959485,-0.8439894520757918
52560,11.775,0.763404463231818,-0.061063692302152,-0.641119308820395,0.04950639209058818,-9.436495650823954,-2.7818655797531413,1.2722878837893923,-0.3659080128584077,0.1784279328366475,-0.1272064977191074,-0.2746043513191186,0.09878797997758341,-0.8476725039115185
52561,11.783,0.762414083999951,-0.06190129797375919,-0.642270399103001,0.0488029534326744,-10.54249261600409,-2.9386012028385036,1.99924021508711,-0.2659664569897738,-0.34684863456752063,-0.009651204851951076,-0.2780181573280548,0.10611679882072146,-0.8486289075334533
52562,11.792,0.7622242379453208,-0.06275460031185624,-0.6423666707616554,0.04940780831975094,-7.020652545784368,-2.0694227511568535,-3.6708923358051235,-0.05589170708479005,-0.045435836520623794,0.23500473698753324,-0.2675157682349325,0.09855321087224175,-0.8495956995573831
52563,11.800,0.762025988680493,-0.06358527181949869,-0.642422681915679,0.05065968360959216,-4.403297443798512,-2.2440784820179034,-5.17211648562117,0.06286579014418574,-0.052018111676384315,0.35079392549296295,-0.27336018028125425,0.1027199489926944,-0.8530193919172578
52564,11.808,0.7613535907869567,-0.06422715172350914,-0.6430991854492513,0.05137139721481442,0.4259484954259321,-3.319608091539154,-4.249626689885927,-0.015256889602609378,-0.230091949025374,0.219690502258604,-0.27435608319070637,0.10611679882072146,-0.8486128424462561
52565,11.817,0.7611170138922114,-0.0650415523610996,-0.643296928476416,0.05137654565139675,1.6651527925929082,-2.016446835083563,-6.0684313989556555,-0.1295164229894179,-0.06571616653719196,0.11931016468640815,-0.2787815898677481,0.10412973471360863,-0.8415615606255772
52566,11.825,0.7622764981961292,-0.06611719148987884,-0.6417859140290795,0.05170974609487756,1.5129704951741998,-0.4362648280412179,-7.630099042409764,-0.09738195252198803,0.4634880375149741,0.22596848531832214,-0.27144462563280636,0.10585275249377239,-0.8444508585132873
52567,11.833,0.7639722650378903,-0.06698396147590166,-0.6396464076880725,0.0520768690458128,1.2886790858770334,-1.0389860863711604,-3.6663829623903226,-0.025668757864115956,0.6557845821724826,0.20239557366089045,-0.27313013445433776,0.1107612727739075,-0.8498059142784014
52568,11.842,0.7647478360787751,-0.06716032753807123,-0.6385592254485563,0.053780602565884586,5.845340372035272,-2.8179224176660362,-0.9860898604447271,0.2666807728457804,0.29413977471430347,0.3362061492450158,-0.27261504196636627,0.10883744746546668,-0.8559165275651985
52569,11.850,0.7666119782634305,-0.06675727711365792,-0.6360712716880318,0.057121607720456144,4.904823782505341,-5.250102575303763,0.6254411966597091,0.6747761702596405,0.6829296439939141,0.553078005324378,-0.26357747739080406,0.10102972170073093,-0.856890916701603
52570,11.858,0.7681840262885288,-0.06468432520269073,-0.6339661416960968,0.06161307500183447,0.5084057560407089,-4.663543225501387,1.6243660436052374,1.133274475004451,0.5286658270478283,0.5061378621214332,-0.25723194200831545,0.09712117446290587,-0.8563935368577815
52571,11.867,0.7694981551858141,-0.060799755352375244,-0.6320757389797464,0.0682366405088035,-1.0837614086160312,-1.3224631031813388,3.4884594127761654,1.7961798719143205,0.38855324804934055,0.6218903605372471,-0.24596907648701224,0.07933424654214463,-0.8637538232680594
52572,11.875,0.770028133747174,-0.05566932552744962,-0.6310260266662675,0.07591938555432527,-2.271605823787968,-0.28792820272930475,3.3127300257291914,2.150610173336315,0.08045817298246022,0.6289446973931379,-0.25280469647847936,0.06737149354559924,-0.8638411942330224
52573,11.883,0.7696928858886862,-0.048487228315504484,-0.6308850055484556,0.0848879253884281,0.06389385882322249,-1.4822872522256891,-1.7657593120928763,2.704324453788942,-0.2752637330088844,0.5587357056595991,-0.25325499506951016,0.04397525129527083,-0.8725005010425666
52574,11.892,0.7686213778877818,-0.0389799276264465,-0.6314221594554962,0.09490942653226038,2.9194688142191803,-3.035912494404059,-3.9904269012150815,3.2620552930550826,-0.5705419393644626,0.40727486100615157,-0.25721450028830134,0.03170980603925456,-0.8603694176600535
52575,11.900,0.7671642010082943,-0.030030650115385887,-0.6325749176554798,0.10201089303655743,3.608927597100295,-1.1959249740116975,-6.5974218723736335,2.706272811029952,-0.7065213702290137,-0.04087614826755026,-0.26423508676983015,0.00711629648493194,-0.8739462063566575
52576,11.908,0.7673375730993609,-0.02188644281189696,-0.6319281284671558,0.10668117445464603,3.924112842633421,-0.12325706794607673,-5.232938037904051,2.233878045571015,-0.09022844165687134,-0.3939760392482397,-0.2681760665817498,-0.020265784868265087,-0.8660380327258915
52578,11.925,0.7677644839465662,-0.010328524697563284,-0.6315566440242071,0.10755103047723887,4.567538040224204,5.636714473427039,-4.059630126907685,1.1452231094995227,-0.08857440174563326,-0.8140880801170417,-0.27817703437070856,-0.026603999380007466,-0.8680654757185723
52579,11.933,0.7684249202857119,-0.007571344871031805,-0.6313521131043067,0.10421288739627262,5.074337932370256,12.786947216092482,-5.007914026074833,0.027655686284455708,0.06760572812524447,-1.0581355229632772,-0.2676981814475062,-0.035414040364781844,-0.8636671428541429
52580,11.942,0.7687059718450444,-0.00530169446942891,-0.6318247496170825,0.09930008387121428,0.36998978763082346,11.607268338510583,-4.6022109340446455,-0.33277043859035893,-0.09917609660371558,-1.2643868729499272,-0.2684370890218561,-0.03224727528663924,-0.862190319060199
52581,11.950,0.7680478465650571,-0.003098042844020717,-0.6336923011138005,0.09234162131136388,-1.6788385471365606,10.04038816730531,-6.056354490815059,-0.6801304436454936,-0.49698984730468454,-1.6065457392815106,-0.27524189165889024,-0.03270158934208671,-0.8693025779242411
52582,11.958,0.767150477482606,-0.0014635549527222123,-0.6358599250703162,0.08461772033493939,-1.9176599641855911,3.889012287173148,-8.671155223929556,-0.9194813956547364,-0.5751666762083427,-1.6557910143180214,-0.27551172864113366,-0.032973833291085844,-0.8634455687970993
52583,11.967,0.7644635860013357,-0.0010554920900870861,-0.6400277697245296,0.07719304111039194,-4.070524024155432,-0.6362214278929476,-10.435906908587386,-1.128662858661091,-1.190274148867949,-1.372500166274081,-0.2877465961480421,-0.02787738746018095,-0.8571270043134815
52584,11.975,0.7611719727668871,-0.0015619345346658368,-0.6445474306193784,0.0719263367385851,-3.7742449602356682,-12.768630005906921,-3.4947057627258773,-0.9802271294024257,-1.3288096206684614,-0.8264754391349047,-0.2923937553749618,-0.029595720884887513,-0.855202467230252
52585,11.983,0.7520959030525681,-0.0003987978529384791,-0.6558842720890343,0.06455552027559253,3.2544133839863516,-28.32699521517833,6.599668523719551,-1.1161717868508612,-3.498610503694708,-1.3602047926702698,-0.317806765633142,-0.02302859271212496,-0.850155387930501
52586,11.992,0.7410419327307851,0.0060780197489899235,-0.6689251697875902,0.05795712928705831,25.59918932595171,-30.210385783868908,-13.199806813222843,-0.07174958268500302,-4.204402846611934,-2.0286987709791164,-0.36058105400211016,-0.034802249069036284,-0.8389246587184065
52587,12.000,0.7300577603234354,0.017310993477864117,-0.6812535579614825,0.05108410575864095,46.90325342765504,-33.105981824751865,-9.230500875747614,0.7396185573507525,-4.13508197849762,-2.8486416616603285,-0.37162261873393176,-0.051464517195389664,-0.8263574429669869
52588,12.008,0.7213472679942965,0.03198916197153164,-0.6902537450214433,0.0467394903416377,60.224628748802076,-10.990471753839508,-23.434238180831763,1.7840725052858084,-3.2145522942219604,-3.0180771521607515,-0.3963338362986635,-0.06568306498145415,-0.8143267636993583
52589,12.017,0.7170289314704195,0.04373570494649294,-0.6943858172784204,0.042249690055695774,62.886350106359714,14.670582862748313,-12.607828892770367,1.2794413899671995,-1.6070053947729657,-2.652821912288463,-0.41002544057007645,-0.08889840821419855,-0.8098594185214776
52590,12.025,0.7180445063509674,0.04890084678805126,-0.6930416386082133,0.04140146419934288,52.433658928586134,24.622311488841515,-2.0676470862993717,0.7558310076481571,0.33358945219122743,-1.0445675493262276,-0.40758589155607244,-0.10354901936728889,-0.8094307021848823
52591,12.033,0.7211500260436462,0.04867786193595604,-0.689590611371304,0.04514304379573856,21.148312817914164,19.200550182237937,7.117874885653964,0.5975325324088765,1.163749888492611,0.5923038745272416,-0.40052636914277984,-0.09697954901679773,-0.8047294500461946
52592,12.042,0.7218219000186006,0.04367080388575981,-0.6890165223458473,0.04818959925070332,2.655672596752606,9.400164906380896,-3.505852274061771,-0.34823851241203174,0.3061081271295434,1.3336072891206783,-0.402165712221827,-0.09739170387313051,-0.8206080946039868
52594,12.058,0.7297982930660142,0.03787896323062693,-0.6800281159211125,0.059341361117577214,9.571698006086116,0.4118406066306273,30.892506789821443,0.44878029075572534,1.537742663166361,1.3335771826826006,-0.38438019626158326,-0.08961911077432368,-0.812191830814947
52595,12.067,0.7561072416128943,0.01894776751140315,-0.65198276862776,0.05349103382208606,28.939889188775975,35.430690115466554,121.67346031982909,-4.0925938696217665,9.43315828762397,1.3998345527636462,-0.32392432253361586,-0.06552496798477415,-0.8469680340380132
52596,12.075,0.7678989978080735,-0.005770517342675294,-0.6396578068812286,0.033700450899820385,33.75569978502244,81.42887040976447,117.26698883013806,-7.469010568658758,4.309652342858662,0.07271938195769778,-0.2928794457064022,0.00019260596494090001,-0.8557941441765079
52597,12.083,0.7715924053228363,-0.030773899767496057,-0.6351661676106304,0.016188473184494626,74.1403522373462,49.22380327352594,81.96546335695508,-7.245870586657081,1.6233266015197763,0.6045510277396015,-0.28506697222503824,0.048777202488754966,-0.8557709630160267
52598,12.092,0.7698639649716237,-0.0533102177336796,-0.6359759485595513,-0.0014453294219055769,54.681924152910014,-17.891206732950103,53.80068880875356,-6.867565029164003,-0.1954359783251853,0.19332978045725255,-0.27651783590389295,0.0990754480818184,-0.8567129131633604
52599,12.100,0.7774282597758967,-0.07501462309106378,-0.6241406776335536,-0.020652402946286206,48.011293099265494,-41.060286172080374,34.94171515518158,-6.845268172194497,3.5793317421362474,-0.07682500756593666,-0.25600147055992745,0.1413218300938901,-0.8586175714549367
52600,12.108,0.788861898865375,-0.09409513232131733,-0.6060238399388612,-0.039725508400852,41.32874978834989,-21.42242511142086,30.633432601820164,-6.293764890928774,5.340657964254597,-0.3242754172944725,-0.21716212406414498,0.19505674253636668,-0.8633164892687984
52601,12.117,0.8008635508662589,-0.11271816909354311,-0.5854315259476959,-0.056410244429880685,50.211219353248865,-3.2393357244764345,28.162420058915913,-5.878000341247549,5.845202730841436,0.11789957843038353,-0.17032691689080975,0.23236766922442442,-0.8541428044646875
52602,12.125,0.813002178284382,-0.13406004909048336,-0.562013564691206,-0.07208407900355757,54.67901085615346,6.284545812907887,17.0543294008923,-6.281030258395594,6.34626528266743,0.7726820951079131,-0.12839397402409658,0.28015544241193413,-0.8405457450323065
52603,12.133,0.8236781243872598,-0.15513699660748378,-0.5388674264635094,-0.08431344131328777,42.10161398716607,3.08704429401621,12.799681690167885,-5.811794833629699,5.993205518388806,1.3737135478018543,-0.08907366298545605,0.3250931958471436,-0.8435757313582474
52604,12.142,0.8332156720053677,-0.17434303499729475,-0.5154269806543815,-0.09844377931633662,45.17788307680158,-4.555934235863635,6.023506146509822,-5.731256028864851,6.00887840183558,0.7443306180231565,-0.04130376392782857,0.3667529307621023,-0.8248553999170142
52605,12.150,0.8426013309166094,-0.19121885702451194,-0.4907247596196948,-0.11246135403769099,30.306855435937305,-9.58040769086059,2.235967948458731,-5.295795272101232,6.292783904262036,0.5229253804398747,0.007695707836982549,0.3935296275963576,-0.8081542329169099
52606,12.158,0.8497643618988199,-0.2051061254901189,-0.4689678980838383,-0.12609963164081922,24.05848068556308,-13.70692416217927,-6.81741935148297,-4.663542088118399,5.494915770102227,0.05502750767876521,0.04719388398944566,0.43229132811558,-0.7960760262163432
52607,12.167,0.8569695080533892,-0.21361954083167992,-0.4477837555608987,-0.13949789352306238,34.963725971032844,-18.32435600219503,-13.6266610933296,-3.5351429958519445,5.532436558861068,-0.5368976460713265,0.07228073884354813,0.45517587295611045,-0.7824281806327366
52608,12.175,0.8659353721353432,-0.21716395359850016,-0.4238187959366684,-0.1528835398369819,28.885142502541775,-15.548644458603722,-13.135283086196635,-2.5043224063200644,6.456193331475807,-0.8719101556940181,0.10854555790249662,0.4740968293821939,-0.7567871681350498
52609,12.183,0.8732814043838881,-0.21979941277060824,-0.40276653117340394,-0.16385032276301376,25.205717070565456,-9.745928092777058,-13.812837482693263,-2.0515913233218592,5.595150635127047,-0.6732482087880831,0.14876822310690274,0.48233193415849834,-0.7428990493796698
52610,12.192,0.8801339893212196,-0.22109448532616618,-0.38346244321226414,-0.17157489340097193,22.254403969402016,-9.247310341005798,-13.699663443701512,-1.4068580790718532,5.0635094416592725,-0.23259124142412896,0.17266460558172145,0.49426306775570766,-0.7361450503959164
52612,12.208,0.8927845752851241,-0.22023299250615883,-0.34815059180274,-0.18227533177077226,18.456084111028396,-9.28052444811591,-13.714422655092596,-0.7850966801726902,4.614326212076389,-0.0008835699006368262,0.23407371514651149,0.5041485828025895,-0.7099487832363073
52613,12.217,0.8987085869103961,-0.2196389564198995,-0.33154358668440204,-0.18482547109297176,3.619704936717589,-4.321073315209209,-12.340930690679736,-0.48723780401699746,4.216759728339499,0.5138501335021985,0.2657656331460112,0.5043423637976807,-0.6993105563174312
52615,12.233,0.9088773905817045,-0.21874059219637526,-0.3072496070499581,-0.17802281084910887,-25.295502244050443,-6.192390600091804,-15.345954585522383,0.11349252258036958,2.872270878627743,1.5412202861826205,0.3052529582357108,0.4989022375970546,-0.6847588245235376
52616,12.242,0.9116005074062863,-0.21863080608987354,-0.3030542071079712,-0.1712986663090317,-31.365464366343378,-1.7252112543358649,-8.388831865182196,0.5022354701307576,0.7761087362353175,1.780840890284073,0.31283205233135314,0.494275329976833,-0.6871892284887131
52617,12.250,0.9125580713427475,-0.2200070885527792,-0.302869916369004,-0.16463432562004762,-16.162536799255726,8.505050837234265,2.2416383509979942,0.24322016250378126,-0.2893286508293184,1.5990930228264761,0.3206286383000089,0.4835156997286033,-0.6835444517103137
52618,12.258,0.9129948938828356,-0.22364631086668216,-0.30197735342723847,-0.15884687405383288,-5.892884855472761,15.13842445002125,10.897956664234842,-0.3688468516579393,-0.21549891552113154,1.5922627944409409,0.3147843238638929,0.48304381934019136,-0.686990394544509
52619,12.267,0.9123405136681695,-0.22900010091073225,-0.3027533657135719,-0.15340841062888125,-3.2377141432050247,12.010629258642501,14.858249489096764,-0.7679748939997926,-0.7069353665287679,1.5114258093312565,0.32695373233332975,0.4839793824949651,-0.6783874185947483
52620,12.275,0.9107647091337144,-0.234366803100339,-0.3063621385107525,-0.14738414530819038,-1.0811452446367356,5.505397040727886,3.238652586048866,-0.6725583734341783,-1.4275216557151915,1.4554209665398559,0.3201531160600563,0.48816837130383933,-0.686453968852895
52621,12.283,0.9100438671644406,-0.23711373663610566,-0.3101735031807561,-0.13924666480541317,-1.3404257349848197,-0.08120494987375738,-0.6603371779332993,0.1096901433587917,-1.433373680838235,1.7388056280889574,0.321154502371448,0.47867393151373316,-0.6921104725993236
52622,12.292,0.9091591001154344,-0.23963187552161194,-0.3147473796195719,-0.13015522246111105,-2.330163675103225,0.7347860453537685,-0.649278053693316,0.24765306311982624,-1.6579867567269506,1.8816571872144172,0.32213228572698926,0.4711068302986605,-0.6923866274486474
52623,12.300,0.9077716813753033,-0.242358794114332,-0.3201012374246792,-0.12144129119739704,-3.1534721194272213,5.228613341382876,-3.936344371719049,0.16828168742338492,-1.851666331144233,1.7558550927751821,0.3133379836541703,0.4696361479568028,-0.6912115327879643
52624,12.308,0.9057697802084947,-0.24614198840674106,-0.32543947646362764,-0.11438694839583179,-4.163679547779951,11.959634423031607,-3.8733136044205425,-0.22648243955690783,-1.8311171864658087,1.4600906467496768,0.3026635724657127,0.4601885517212684,-0.7066848634976757
52625,12.317,0.9025952730021887,-0.25293022806652066,-0.3304899140346528,-0.11011126012216049,-2.1752637262822927,16.891078665424516,-1.437073943104352,-1.1759901763182754,-1.7803371894641988,1.0794437797684817,0.30407791130516726,0.4674576450323273,-0.6951689381809272
52626,12.325,0.8982510184248793,-0.2632108755531483,-0.334567010478902,-0.10922480665316968,0.12710809644844112,18.264232676529947,-0.9696081907190557,-2.3044753851528452,-1.5492919243038543,0.6515932210332216,0.2994549842129736,0.48480899631946983,-0.6987681727886687
52627,12.333,0.8930153438583643,-0.2751432414043077,-0.33826643299364484,-0.1113355857433468,4.633339210758705,13.712031056010256,0.8157121976552856,-2.965225780524879,-1.3974452300343847,0.14339131800479624,0.2898359306903373,0.494223802066804,-0.6765479424824731
52628,12.342,0.8878449125256849,-0.2865329047768882,-0.340780773524345,-0.11618420795670548,9.943323053190959,7.836225860991393,1.931670732502558,-3.104062870064987,-0.9443572868496612,-0.4105706154398274,0.27030322224451125,0.5215660663986148,-0.6762583267896881
52629,12.350,0.8837187299943813,-0.2958333137387151,-0.34119173728182767,-0.12293109919828019,13.211050726915921,3.13173034087058,2.5069211270880056,-2.7996055491846903,-0.22501495001244895,-0.8154479795976317,0.2782706051936332,0.5351405837332158,-0.655894159482667
52630,12.358,0.881217891303394,-0.3026627848721498,-0.3390835715808514,-0.12989456564540586,11.212453069373778,-2.4479287937991896,2.392703736587314,-2.2545536107832063,0.5313986001201733,-0.8437906140565375,0.2723788022899581,0.551950960388953,-0.6485149952548831
52631,12.367,0.8799201786145028,-0.3085942771035907,-0.33435763749598724,-0.13680285689281416,8.85504454772624,-5.317865997365149,4.640803215055753,-2.0513436186797804,1.2068685895483753,-0.6807945258821775,0.27330799022279384,0.5633739098429573,-0.6377137100319509
52632,12.375,0.8820637067230969,-0.31246542960830426,-0.32077462008325675,-0.14639882408015162,14.736067785790247,-23.143849627043185,20.33263893035394,-1.8704174748921274,3.6215197857080326,-0.6582427939157433,0.295910920546995,0.5720516177860662,-0.6143790783227814
52633,12.383,0.8886908988482745,-0.30946197765318795,-0.3006155099999683,-0.1552162550723438,-0.06465508720727671,-40.97356875156917,62.597097064817156,-0.2459987784664504,5.542563030071974,-0.3872262405545326,0.31853543513716487,0.572940337386268,-0.5959646304388035
52634,12.392,0.8885068128942776,-0.31038422503370666,-0.29866655907250855,-0.15816308919108224,-5.273713456852394,-42.6199867945397,30.553822300937572,-0.4877162911712734,0.5840148908493639,-0.4331716505294715,0.32633176937423725,0.5741434601345838,-0.5922624708582094
52635,12.400,0.8918838327703219,-0.30698186193591936,-0.29237511818196904,-0.1575504857287224,1.3032897132978893,-37.285253165509005,2.7312500087966884,0.7941959167336978,1.6687478940536797,0.46366526227958016,0.32587572023754596,0.5695399742916483,-0.5996109273573446
52636,12.408,0.899742165113731,-0.2965099047155232,-0.2804995426504566,-0.15448598413749912,-3.793570255363357,-24.62556975741331,36.091209737869974,2.5997991748779725,3.268589481181003,1.0564081210866536,0.3561170037785982,0.5568096751804057,-0.5922149546583073
52637,12.417,0.9001781108185251,-0.29344494375734725,-0.2819534749728479,-0.1551504809440642,6.810742631553075,-10.15624036997646,17.347356395455044,0.7100077989368745,-0.12652848771267305,-0.4481074905491009,0.35348204034595765,0.5463667902580186,-0.6037514590128672
52638,12.425,0.9027830725750292,-0.2889861947965633,-0.2770331169675856,-0.1572334417107773,24.87970505509035,-4.845455847328593,14.426726922684988,0.8312129772883183,1.5493310731455943,-0.32813799429129153,0.3551758859333559,0.552453840420319,-0.6002967884927918
52639,12.433,0.9044949974918987,-0.2883330247660741,-0.271169069707879,-0.15880869615716955,18.909636476888444,-5.502559010258671,14.542378216097116,-0.05549401041248172,1.5179531188799185,0.07107690479373552,0.3685703365418057,0.5502202963192216,-0.592680223391136
52640,12.442,0.9063483116102302,-0.28789421974274854,-0.26462491437521424,-0.1600728302114683,13.446035930187438,-6.478586395512341,9.125377736301798,-0.09416150304742998,1.6441800898316883,0.20659183282201837,0.37783690163768907,0.5492320341655546,-0.5902028548095565
52641,12.450,0.9080260828767753,-0.2864812058767919,-0.259925570955359,-0.16079754058557413,5.647473373106657,-13.495427569864363,5.978229627402747,0.20723937918367302,1.233066515590672,0.12648801136195523,0.3848878150040145,0.5577452383351795,-0.583539150313252
52642,12.458,0.9096501802454963,-0.2835638286707583,-0.2577136132122755,-0.16034898881499335,0.1333027973223876,-16.785252522648346,1.6256358725210485,0.7055491809147026,0.6627372587749151,0.11926424089801521,0.3909776726390966,0.5423493317558138,-0.5804123919840777
52643,12.467,0.9114231974040824,-0.27846709133118414,-0.25842292099195047,-0.1580551428624103,-3.217068028631665,-17.92835769436605,-1.207552076773905,1.4133260598145858,-0.004932623416030728,0.1908683111575494,0.3885868731691758,0.5306857577521464,-0.5919536807208036
52644,12.475,0.9134129182755397,-0.2711137718095841,-0.26154701852667794,-0.15416653515710915,-2.319543360287965,-16.00341367336166,-5.337261138133501,2.114626949075351,-0.5415621785968687,0.24725346033711204,0.3808173651431869,0.5270705340628778,-0.6017709377550128
52645,12.483,0.9153884825186869,-0.26242931530566754,-0.2665532572865147,-0.148809077580244,-0.4054700456328745,-12.444440972258873,-6.160510286094849,2.565446126269421,-0.9997149149773862,0.36176860959465107,0.3811216485880575,0.5190795671028294,-0.6154800984678135
52646,12.492,0.9175752871250903,-0.2532843848181059,-0.271207529480745,-0.1426502324483664,4.917215494266629,-9.391065941400816,-8.91651965150787,2.7270556617805024,-0.9447785341633316,0.5419478890150573,0.37068846580032394,0.49522432644159636,-0.6302890453485457
52647,12.500,0.9195700469771578,-0.24444028101911836,-0.2758236326605096,-0.1362395000859999,5.366008466886752,-3.165634478433725,-8.482756513475836,2.656867920150258,-0.9714286811822902,0.608353842826306,0.37706411743506,0.485245124285571,-0.6366567355235954
52649,12.517,0.9215402674823838,-0.2269961961098092,-0.2879830702865689,-0.1276793389256654,-6.170047465017944,4.725700546241926,-8.596204150931538,2.479316327299979,-1.2443944930795383,0.031945729079605384,0.35768479495937716,0.45074267790708056,-0.671331809869239
52650,12.525,0.9210751426127931,-0.2185226712998302,-0.296810306383299,-0.12558688551541258,-12.806407177356334,4.188281843122138,-4.662289074866921,2.27615524999954,-1.8439703664867644,-0.6251598989268825,0.35160837490742936,0.43832092649963056,-0.6775216966496115
52651,12.533,0.9204003784919631,-0.20892664844246786,-0.3065316661479288,-0.12349549178420619,-9.337907992131226,-2.3317765555566936,-1.7272642003812226,2.534532330508087,-2.021934004870305,-0.7613515985863818,0.327274042300313,0.4269331097115551,-0.695749862443795
52652,12.542,0.9199978680054901,-0.19766255839910932,-0.31658977811404626,-0.11960078706334044,-6.346623789187253,-8.506163559122498,0.4049803196140332,3.0673275521919297,-2.1177532117057387,-0.4929180154587963,0.3322254079114145,0.4243225434200537,-0.7113659940758881
52653,12.550,0.9196049091110011,-0.18472709574151436,-0.3277683600631907,-0.1130071386211486,-3.411342955698625,-8.264910441510015,1.2386169542247543,3.6691321502987586,-2.4408237027365,-0.0814206104961693,0.3047111291761259,0.39974425802096697,-0.7282065083331786
52654,12.558,0.9189393742762652,-0.1715843721018973,-0.33925927962793495,-0.10493984391773428,1.513797845261267,-3.998428664813021,1.5154029564156717,3.8438511993512985,-2.592637589276132,0.2149474996103774,0.2869720152778119,0.3754206502379149,-0.747200230484304
52655,12.567,0.9178658369820449,-0.15928937966632323,-0.35048385042951113,-0.0964897373551821,3.9868423682321534,1.1332814525031554,0.6393089135168528,3.6498282574589913,-2.60039894228942,0.3613058475650783,0.28192605762028694,0.34596780613575756,-0.7656745820284447
52656,12.575,0.9162448194919272,-0.14807969938360058,-0.36161482567238734,-0.08833205102677875,3.3164323751757494,5.429057977973568,-0.0076442386925933935,3.3766624519423725,-2.641994825085524,0.387252583073676,0.2629511094499754,0.32870779978003023,-0.7812218014188692
52657,12.583,0.9141695068978993,-0.1385082881536968,-0.37233402875660754,-0.08047942470382421,4.858552874747354,6.26298935818946,-0.4232723951637267,2.951807010055291,-2.6120379664297952,0.4623031991040488,0.24594649071756347,0.30731618796977905,-0.8006865285556178
52658,12.592,0.911979132166107,-0.13090068083731873,-0.3817941207871832,-0.07343244230054144,8.763170532688923,6.102648389159587,-1.0763940405030687,2.435214785630283,-2.359102766151821,0.5084252407427678,0.23910568015477424,0.2875351694087193,-0.7995906966681156
52659,12.600,0.9102819047499634,-0.12420421682331488,-0.3892567084798563,-0.06662868234862483,10.41826952198943,4.636164080173771,-3.8791040801262215,2.179928659340811,-1.8824941588193909,0.6022449896613845,0.22083413237745236,0.2748821621625204,-0.8085207949549105
52660,12.608,0.9099046765110962,-0.11695267490796694,-0.393553002230089,-0.05925863591740971,10.609573694716982,0.6165077211565917,-1.6099534550807386,2.3585921333986706,-1.076487721825468,0.7918350026708395,0.22379095182806605,0.2566011031649256,-0.8146991603824957
52661,12.617,0.9107921018239765,-0.10908112097196318,-0.3948459149692935,-0.05153406382796233,9.5902942173735,-3.0719014125879776,0.9515284548694508,2.505827753145656,-0.2997671827541531,0.9017298819343754,0.21967635491463555,0.23710872379696515,-0.8228675241034916
52662,12.625,0.9125305635275026,-0.10064547160404032,-0.3940303496392286,-0.04357227601315416,6.0667521378404965,-4.095123307079261,6.214253205480943,2.6630817734420043,0.24108926121134958,0.9694949077782855,0.21677924667460474,0.21712455552989968,-0.8303004685492946
52664,12.642,0.9140095716485928,-0.08243461428804234,-0.396315561874424,-0.02692606020377421,-1.7819493848685672,-2.6534577504171954,4.705028176702663,2.825349496250108,-0.28243083009460407,0.9224920852010168,0.22220255437264974,0.1764097524806291,-0.8421909788010076
52665,12.650,0.9129441952989071,-0.07085841495311657,-0.4014946191451364,-0.017721515112024227,-7.171144371473357,-5.562713271931084,-5.14128988578635,3.4560671932345017,-1.3435903649372867,0.797828074068428,0.21318281410177367,0.1515217482888857,-0.8452796815361424
52666,12.658,0.9112832116300774,-0.056289760132119594,-0.40784990572686136,-0.007268115576321984,-6.346590869639901,-8.882628601887527,-6.630623429718061,4.211642305419504,-1.6655457213172198,0.7525615107294951,0.20416006120821348,0.11710885599656425,-0.8476816498961953
52667,12.667,0.9094361714338189,-0.039378479522111265,-0.4139556907285062,0.003983911621732442,-4.453007755872018,-8.125871019338978,-7.210083850412719,4.815603390695239,-1.6376923153369778,0.7050672027738439,0.19516196685185738,0.0815022096668415,-0.8557045893876716
52668,12.675,0.9068074589602804,-0.02105608470877458,-0.4207267658496684,0.015679992615260593,-1.0556265481389289,-5.477985613894824,-12.157144216897487,5.143051488142903,-1.864867294017958,0.649035977448613,0.18712127101304663,0.04001517614741674,-0.8593569123102817
52669,12.683,0.904623637702259,-0.0016771541819428396,-0.42522024240727635,0.029000115711490533,3.796270197990356,-4.289709937337279,-6.827294358779484,5.5641874264332625,-1.3361888499308476,0.906998944029619,0.16273490153945536,0.007574123806972292,-0.8657231528894971
52670,12.692,0.9027381191482312,0.016917407525589914,-0.4276987856100536,0.043028343530893944,3.82047752529874,0.7553570311013408,-0.6702630355335029,5.4661051522331325,-0.8609549851839143,1.1319787734675404,0.16929527065144173,-0.02883754348110491,-0.8585446622811295
52671,12.700,0.8999896512705375,0.03376275634393038,-0.4308506786208909,0.056977158773622485,1.0421498172137658,6.737000218177278,1.4041677258261263,5.099713036867313,-1.0775643341092738,1.317541140980189,0.15711075796955024,-0.07544444460872052,-0.8637045977347131
52672,12.708,0.8965192630170878,0.04879846374967589,-0.43468625125414756,0.07014117154414769,-0.6083090730788928,10.392812020788995,-2.3663238796137653,4.600735916494617,-1.2806111686357844,1.344796545526734,0.15053376428101548,-0.11424713323819326,-0.8670934773017841
52673,12.717,0.8931725071818598,0.060005989278054596,-0.4383555276570542,0.08053933844860343,0.5351108379868924,12.617433664263787,-4.755624792830114,3.5076257929124246,-1.2013634093514087,1.1562101993593463,0.14097739862999148,-0.1318637019411491,-0.8591630937008882
52674,12.725,0.891130858148334,0.0672467886707668,-0.43994676063972954,0.08837709472421064,6.738546393767166,16.014786616739187,6.310510560324599,2.3895902586754976,-0.5790601768959541,0.9645925810638406,0.14097336638760824,-0.14383113929315172,-0.8582439346346579
52675,12.733,0.8924914296557332,0.06549939062425933,-0.43646416896070006,0.0931015952192113,13.490350895177642,33.5625881914784,32.89175832042174,0.21859111192618025,1.0058101447564447,1.1062282255032267,0.14660360742635575,-0.14698853566037998,-0.8616524220491888
52676,12.742,0.8950097595305766,0.05169765476140307,-0.4333256579755997,0.09227002209387693,13.296356854272855,47.555838540353626,53.08146664556533,-2.9979521124961246,1.2363134861125806,1.1608443861512487,0.14975778806217752,-0.1308965193870394,-0.8571667694443811
52677,12.750,0.895774239924903,0.03414824547141293,-0.43481724774647695,0.08576928051677676,12.727290931857373,22.67116904385759,29.198612259965856,-4.450886427431232,0.06638087135273028,0.45284473843227857,0.15348004061145612,-0.0895704763745056,-0.8708685138685497
52678,12.758,0.8988889933552421,0.01776386110733374,-0.4311300762591659,0.07622257020151488,10.264066361979253,11.334123478561215,37.3485682520183,-4.460558039924274,1.3740962094951799,-0.43245515217384695,0.16715110078611645,-0.05710014681245375,-0.8706527842227701
52679,12.767,0.8975882995225766,0.0059737420934379195,-0.4353514123545572,0.0690558232625097,24.421599494781763,-0.7610082521085626,33.12236429015075,-3.3179802188332106,-0.865840385089097,-0.2598416750615031,0.15886924061373986,-0.036327352831133954,-0.8749840952326864
52680,12.775,0.8965764021474869,-0.0036862557427734606,-0.4380840321673096,0.06495804331180481,25.907209716888705,-13.58599933516916,20.716640964706908,-2.5424422430206133,-0.5401448094719711,0.152544677336782,0.1554412548204497,-0.016806867330430304,-0.872708183902449
52681,12.783,0.896951712479796,-0.01007062448383761,-0.43736088177620647,0.06396614021501061,23.443741816741316,-19.395795009172094,18.169126476410288,-1.4283965922336845,0.29280686611860884,0.4609850851906447,0.1625221919661959,-0.009969837386397198,-0.8728884700282911
52682,12.792,0.8987920984911343,-0.01274275153779185,-0.4330388159338013,0.06699081927996321,17.165777330498624,-16.63142319892813,14.826983262208818,-0.1730267998148072,1.1609433921069614,0.90054622231375,0.1671371083660228,-0.0029156046699868785,-0.8674631793912244
52683,12.800,0.9014634069774271,-0.01498067752947638,-0.42677389080022404,0.07073437150809965,8.165174886953224,0.05309618367044075,20.280010591037545,0.05533161432393267,1.6531521423140643,1.011596094424219,0.17151574819839485,-0.013186959285704543,-0.8638310545390174
52684,12.808,0.9038105332183916,-0.018784534005870678,-0.4210304314523307,0.07420941393605966,11.362121251756294,10.035329742869825,23.825409051625282,-0.34627267460018174,1.5397485413712837,1.10795202401193,0.19204901583755296,-0.010717474990401137,-0.8695886304853052
52685,12.817,0.905280575645886,-0.024348364177074918,-0.41717418757446856,0.07641945918243724,17.284907396224213,8.63206525759603,21.254866632664548,-0.8734612303984891,1.073554049962265,1.0331810782226525,0.19715342876651626,-0.01074206785655136,-0.864439294553997
52686,12.825,0.9066126359380272,-0.030255195223671198,-0.41372436217870356,0.07726774009445875,17.27998650492116,4.028812666498798,18.33861782451734,-1.1140891311011165,0.9892687469770888,0.7631357576877381,0.21471929545462556,0.003893319141303115,-0.861606427341532
52687,12.833,0.9078563515072401,-0.036141746665287924,-0.410675908586817,0.07639317562673464,10.72644446204518,1.75094514059889,16.283841476258633,-1.271087247614414,0.8981735288979364,0.3966297488752146,0.2113289434175412,0.0163747960808323,-0.8679092186102931
52688,12.842,0.9082928625874569,-0.04160668838201387,-0.4095861315059514,0.07424392320287808,8.621979392210983,0.3656649617294552,13.600388719939758,-1.3685807934972716,0.3989471414545733,0.06742375319213259,0.21570525631727688,0.014890060672603084,-0.8637466640304245
52689,12.850,0.9083071991162214,-0.04608506587182088,-0.40955176277080363,0.07156502182325333,11.978152936543175,-2.855957704111033,7.908291034216676,-1.2101275926955204,0.10830499528514671,-0.13677050643381033,0.22179445123043562,0.030987932390265142,-0.8604688366913904
52690,12.858,0.9084853980430425,-0.04966748734955081,-0.40928002163864297,0.06839068745398456,14.279278685472251,-5.184686786354282,4.879606324857038,-1.0779053587855045,0.1710510735142007,-0.3444791928133926,0.22693176185226402,0.045403774438013814,-0.8628186066622241
52691,12.867,0.9086570170917357,-0.05269863193772152,-0.40909617747919613,0.06485057481435297,16.033102403805852,-5.971638218673287,2.9573559487683694,-0.9726238612340604,0.13959547109259607,-0.46708168686362694,0.22596572860085523,0.05444858452812985,-0.8652209154854944
52692,12.875,0.909026132726245,-0.05463544628467774,-0.4085787185550305,0.061236335406118794,16.286884037717602,-6.800395574678061,1.9480737516079998,-0.7572255855074226,0.22135990662797048,-0.6034407628900088,0.22963215349810048,0.05127947727225866,-0.8661966162754678
52693,12.883,0.9093479554247202,-0.055778283249841076,-0.40829921210970943,0.05715621115130259,16.953446425755367,-7.658044977497372,-0.44192022136019854,-0.6121438454961275,0.1525344731506043,-0.7736281315691027,0.22645478331537594,0.06836561114358779,-0.8653961575180131
52694,12.892,0.909960125256543,-0.05544293131802656,-0.40749731497585745,0.053334698812577616,15.14058667836218,-8.218792880468754,-1.4427043320910067,-0.2759837082600272,0.27667720182813466,-0.8731451576975557,0.23842716694786345,0.06984097784090262,-0.8675338709715503
52695,12.900,0.9106146267045143,-0.05435553601358832,-0.4066648647350939,0.04949914268410401,10.58218962863858,-7.614971808460333,-2.1538878845973914,-0.08577203076969953,0.2718847038088663,-0.9366059279045528,0.23623538531787688,0.06471993914384752,-0.8687887799889121
52696,12.908,0.9110717216032262,-0.05251704209018344,-0.4062521818415078,0.04636208724859299,6.4440825693353005,-6.971716512232037,-2.9577130278039476,0.11259374476893289,0.14899948033552218,-0.8747708561116727,0.23792603333693804,0.0700710625907871,-0.8646052163003054
52697,12.917,0.9114299393150043,-0.050272626572017504,-0.4059872345437307,0.04407373509623025,3.0203498425294715,-5.898190314919713,-3.8712873905404432,0.3044796469595731,0.08792193245863164,-0.7182301383306757,0.2374528534417596,0.06520470150976669,-0.8680486764033359
52698,12.925,0.911676634360899,-0.04781234315535691,-0.40589135953964567,0.042566400522429965,-0.07293232425767096,-3.715425198887586,-2.0307157463086103,0.4026844458372221,0.0336911643732835,-0.5812987631210372,0.23819168395542067,0.06570000367546451,-0.8695079340333426
52699,12.933,0.9116387478889421,-0.04622161295457019,-0.40631790679416163,0.04103796366501098,-4.1246020790025115,-0.47821131908565156,0.8165221072444296,0.22462857236283526,-0.10303038431823303,-0.4912747946931035,0.23891773447049147,0.06276332334720638,-0.8680539611444151
52701,12.950,0.9096428389762332,-0.04768380308168793,-0.4108636500319179,0.03830432750193565,-7.246979971710211,3.4643833100711396,3.888244534720809,-0.3178656275600046,-0.5741324948441133,-0.2474627712021749,0.22940471957828645,0.07180579125959383,-0.8700054842369332
52702,12.958,0.9074641345969808,-0.05184991093526074,-0.4153782491194399,0.03579582817350285,-7.978410815486109,4.8320556150040375,4.562619947251444,-1.1909026842178887,-1.140378688169415,-0.15466503511420343,0.21771812480807348,0.07599126680187522,-0.8773610482100244
52703,12.967,0.9045075114695175,-0.05763115192346187,-0.42128723107533395,0.032586514942139905,-6.059085916218117,4.1270798386086405,2.3761368502271525,-1.657454871115778,-1.4935923561751199,-0.16478898421086413,0.2040332057851801,0.09135789615963347,-0.8744176210417495
52704,12.975,0.9009823164867191,-0.06413918685947519,-0.42808798564541,0.0292866289163892,-4.899322797910275,3.240064671368229,-0.6941557551427985,-1.8178232197468347,-1.7422846743056646,-0.10710942097743019,0.19768635795237496,0.1067397496726276,-0.8746158247714615
52705,12.983,0.8973364690558795,-0.07103442259764088,-0.43476861500345476,0.026788495973542856,-1.9341166980489861,3.1561163598353845,-1.384971115302806,-1.8404510676357686,-1.7325198053541768,0.09895177126896697,0.18431311658120858,0.11900636601750818,-0.8870670850338148
52706,12.992,0.8938192491689516,-0.07881744283902775,-0.4407325605292724,0.025095230795505987,0.21170626954971414,4.841460244556596,-1.416010874688863,-1.9168814155765432,-1.5768058660408821,0.3858257003495292,0.17210484924069672,0.13243277482272545,-0.8868120905895966
52707,13.000,0.8907239568315171,-0.08726971693881148,-0.4454597569379358,0.02367349109490495,3.3949473420698166,4.571275005611408,-0.9084649796209865,-2.0384010498869993,-1.2618806546724533,0.524833622416593,0.1628230796033811,0.14341429219878957,-0.8858235484502597
52708,13.008,0.8881115861842668,-0.09545285029452258,-0.44907541135932766,0.021859523516485277,5.470323459697533,1.2303339984866701,0.29444233992731506,-1.98766045358187,-0.9715996931723122,0.4390011621264465,0.15450700928782293,0.16121995754137958,-0.8823565774439246
52709,13.017,0.8855780247893938,-0.10226184425454515,-0.45267308653438976,0.01952316437476792,5.5816397786437415,-1.9549845016004128,1.725003113439428,-1.7694077749296597,-0.9505472689444698,0.17061108086635837,0.1427902109299154,0.17562643087821384,-0.8828271630790157
52710,13.025,0.8828411965284546,-0.10741002715749243,-0.45693010265508205,0.0164130760629963,5.298299534195006,-2.416906819220849,2.8456860122754293,-1.4905115764483037,-1.1087354187839766,-0.1825146108464341,0.13911618633064363,0.18367009683715552,-0.8801190924673821
52711,13.033,0.8803178145661948,-0.1111152349091432,-0.4610084146007489,0.012852688270891697,4.741110197074547,-1.8120620780775338,5.352933673838665,-1.2486630314956577,-1.0372963477626984,-0.4412715912630053,0.12570653631814063,0.195652758344394,-0.8842709179257174
52712,13.042,0.8777139339664041,-0.11407634802461171,-0.4653152168688128,0.009305154104935667,1.4281318298586656,-1.6554617821907018,5.8564012320399055,-1.0754843908778118,-1.1026724389963714,-0.520917715991536,0.12571193752201212,0.19346137344241124,-0.8855021349596112
52713,13.050,0.8741716258104432,-0.11709087699357747,-0.471256353601235,0.005580711717129938,-1.4148059090902865,1.3220579462313367,1.29558460220578,-1.1539370410831804,-1.5419975852778118,-0.5986807268510674,0.11691708061223396,0.21835757525620472,-0.8842005639185805
52714,13.058,0.8711434592921866,-0.12060742025037578,-0.47598340433602737,0.001649942325584778,-1.5299971198579072,5.619102386077294,4.024639427676791,-1.2498734753859766,-1.2274370650913524,-0.5473732145360587,0.10175683263203412,0.22370284325882278,-0.8788702222955499
52715,13.067,0.868554567413276,-0.12458385381750557,-0.4796709362947674,-0.0027603745428388155,-1.5506376246172204,7.747632954537549,7.7984442634181015,-1.4041968041922108,-0.9409319629214787,-0.571352625403077,0.0839527090668508,0.23495309131729322,-0.8830448390913095
52716,13.075,0.8652505246036464,-0.12911319572362262,-0.48435849073937304,-0.008256198388197309,-1.892067996929362,5.391558161510824,6.863503185612504,-1.6476075045153662,-1.2060410613998402,-0.7562968839051124,0.08225109938128991,0.24155300997825604,-0.8847296653066588
52717,13.083,0.8616609794242855,-0.13377653463808825,-0.48931833370796385,-0.014552100022578784,1.6258326214874579,0.20879696056047947,2.7028915844725616,-1.7958358940831982,-1.2665249840530963,-0.9206613536796358,0.07250329232406906,0.2645218732170158,-0.8888127271859853
52718,13.092,0.8589142397228907,-0.1377912379674219,-0.4927670508632475,-0.021460128708659956,6.3154159370779475,-6.85944540577247,8.680801800409812,-1.6969645311241197,-0.8389656990425615,-1.0698116127477382,0.055388779808344425,0.27401631300712215,-0.8832269098232248
52719,13.100,0.856556106605496,-0.14062159249438075,-0.4956588523046655,-0.029317334346775404,10.711207233962613,-11.469922570408828,13.783612093378167,-1.5719740514295453,-0.6371203723345078,-1.3912868265943503,0.05244376183565581,0.29133370271720005,-0.879738718844192
52720,13.108,0.8544559957754176,-0.14173658119613983,-0.49840362601541655,-0.03754355349396617,13.138209785512853,-11.936206842648986,19.744212586929173,-1.2391966238130487,-0.5582917537894787,-1.6618653641298833,0.04097559122270815,0.2959793477592504,-0.8812316184457275
52721,13.117,0.8530986887837114,-0.1413884184425355,-0.5001901627642589,-0.045185654799891756,15.988100309285386,-10.202380446035699,21.089642837634305,-0.8702742405194065,-0.27440691651620236,-1.6851917438708492,0.040190492218977844,0.305687477055141,-0.8692253504711266
52722,13.125,0.8524944150482183,-0.14031696312912365,-0.5008226062663287,-0.05235589004513527,20.760035814677106,-10.127030520143247,25.76432500093007,-0.6346561611203418,0.03907965263240149,-1.6266622702879991,0.027298261627082793,0.3069596940464502,-0.8800182189439211
52723,13.133,0.8525247370246883,-0.13868229519268122,-0.5004818978857746,-0.05904797752445762,23.521138530342686,-8.648155988993855,23.00744190612639,-0.4700912455223589,0.3110778980846391,-1.5617580811926794,0.02897490453268452,0.3162017983982504,-0.8726421569413997
52724,13.142,0.8532575847764963,-0.13671582686467285,-0.4990347638525465,-0.06499677817186705,23.2663621892595,-6.429854814568275,23.90875934508915,-0.2870211848748816,0.5972682376757749,-1.4012409812039468,0.032170245285321405,0.3103659125853916,-0.8775390490702539
52725,13.150,0.8538611781249589,-0.13582976891653262,-0.49745882403400704,-0.07075366250479156,21.860360619034893,-3.8505941545977382,21.94474788623719,-0.5082842236895977,0.5911332940821481,-1.233003736593124,0.028502543899414416,0.32329936140263965,-0.8762723697093416
52726,13.158,0.8543719142204431,-0.13635484088168964,-0.4955991332917188,-0.0764034596070248,17.81876512565535,0.6184710594281853,20.937866973056128,-0.7747532274092189,0.6063444069610614,-1.0301308296020062,0.03266454194495684,0.32965982660280363,-0.8789092047311959
52727,13.167,0.8547470884005886,-0.13866779248614378,-0.4934141225517546,-0.08198269246748466,16.253915639736675,0.6151796389076314,19.27690191865937,-1.1592316598588461,0.6283238944464664,-0.7969352849469515,0.033872247830312716,0.3359933567590889,-0.8759437760793638
52729,13.183,0.8544212352865952,-0.14705535453049856,-0.4896571234237112,-0.09260117102744926,18.44695151893149,-6.456674332617466,13.638481796884241,-1.5145031499213752,0.45411298437173714,-0.5350040903143408,0.029419190571712845,0.370841825685029,-0.86261227486406
52730,13.192,0.8541359389304933,-0.1514594545758762,-0.4879210426758018,-0.0971848113701998,23.734735440888922,-7.653127849142049,7.896239453464496,-1.4540705407255254,0.3776284159866006,-0.3648037827385698,0.03624319916828713,0.3747351487676182,-0.8598780593215897
52731,13.200,0.8542577454823517,-0.15520888728650573,-0.48562294790720734,-0.10160835623416345,21.13737461690045,-5.3806412957998075,8.110476946760208,-1.3275439609494004,0.5561616135190793,-0.3866711601776373,0.03572047101663428,0.3832424974929217,-0.8520268786699614
52732,13.208,0.8541918972196736,-0.15913577668847687,-0.48347121372347635,-0.10624308355257084,19.186411665195145,-3.469482368852634,7.345441813815025,-1.369936997971017,0.5018952017004333,-0.41389398421115026,0.03573198993870051,0.39570640809948654,-0.854652643850744
52733,13.217,0.8538864427766019,-0.16350475610214,-0.4816767611434002,-0.11014370317319493,19.307255583397072,-3.5859879446013756,6.299735453754123,-1.396795870943979,0.36818422595127565,-0.23606553527764826,0.026659036341500925,0.4056727282780047,-0.84561124460147
52734,13.225,0.8536444817932842,-0.16822853295643014,-0.4797456533679105,-0.11328886740452142,18.03867473770449,-4.630743484683943,4.704606613793325,-1.3599720986686528,0.35994050546812306,-0.028514123468744948,0.03401624156781968,0.41254489088796664,-0.8531145237346873
52735,13.233,0.8532371555333172,-0.17316469282073874,-0.4782170583058851,-0.11536373226876308,16.27939167929689,-4.838050784504886,3.98164566223838,-1.2974355525538817,0.21605432618245463,0.19009697949140336,0.03883450088058156,0.4241932407363983,-0.8383887638674483
52736,13.242,0.8528289520877608,-0.17823859871019956,-0.47679144020718645,-0.11654914395169667,14.045472342191923,-4.560043925404361,1.8041625439492825,-1.200838419567714,0.14974202941879924,0.3874138797119602,0.043198796532463585,0.4339259628984392,-0.8314868495800032
52737,13.250,0.8526782939958536,-0.18291969345761708,-0.4752908153997658,-0.11652790863272959,11.867864308321193,-4.648216221049884,1.0563610582400784,-0.9915663693753298,0.16022263035397324,0.5951163899562999,0.04439374810612551,0.4356068214794883,-0.8256140457972159
52738,13.258,0.852793830205446,-0.18718508566406483,-0.47364896301655657,-0.11559016697713724,7.927593650282256,-5.159281803399908,0.6669370153883509,-0.7727224236676355,0.18618450016037782,0.7519741206395014,0.03952785647918541,0.44807658753037444,-0.8294819084297931
52739,13.267,0.8531013417844645,-0.19070408985238346,-0.47207810725683624,-0.11398382081647952,3.512090173967417,-4.526725673186229,-0.21140513664555818,-0.5539414000397083,0.18982810935743244,0.8009744477367853,0.04194024535245454,0.4517070353748789,-0.8228619745958546
52740,13.275,0.8535127521075841,-0.1933147417918,-0.4707784091009151,-0.11186188859535241,1.800942668517261,-3.210283603844777,0.22305393856102396,-0.2752272367797519,0.14172852618436327,0.7971142748161317,0.04097443300835357,0.4502539193659857,-0.825314639755745
52741,13.283,0.8539859166031627,-0.19486641185055667,-0.4698586499116321,-0.10939828554033165,-1.4876074742471872,-1.7654537309783738,1.5417369140535555,-0.029099739546492153,0.08870234662095094,0.726602553168789,0.04976873508117251,0.45172460170784334,-0.826489734416428
52742,13.292,0.8541599293353932,-0.19548044555725733,-0.4698834405897091,-0.10680712889161163,-5.278112243531931,-1.6742728088010712,1.8449296509749469,0.206665288439467,-0.12609595862865025,0.5979951659345201,0.04952790225865073,0.4473336342818277,-0.8272442912202848
52744,13.308,0.8536800090674065,-0.1938028876658253,-0.4728409914130234,-0.10046033889356243,-5.20167201513976,-2.229269971348014,1.5208875882717265,0.5684826991363927,-0.4560281050068514,0.4716674494347295,0.03902256732877469,0.442198542518401,-0.8256059888300182
52745,13.317,0.8534498086582959,-0.1917751055720084,-0.4748017547118811,-0.09700013766218067,-2.68803056242541,-2.5500126261416955,2.1829191879724386,0.8748974233581394,-0.5466237524803497,0.3738842623363842,0.0409897557095087,0.4346454943697,-0.8288074852613649
52746,13.325,0.8530805261625807,-0.1887330264139364,-0.4774439806605854,-0.09317030618059348,-1.5409983546763635,-3.588618417487344,2.2797727196821596,1.1152891474389919,-0.6880131144143682,0.2975496525984957,0.027571964151550474,0.4263553484167737,-0.8311034264233025
52747,13.333,0.8525164307917992,-0.185047647983151,-0.480624348110797,-0.08929355636879278,-1.0068564850753337,-3.9580642779582336,1.6920371948492328,1.2744554348562578,-0.8147831611695416,0.20689162951452764,0.02760658014769293,0.4100355895712772,-0.838994223569623
52748,13.342,0.8517966746563883,-0.1804068144103901,-0.4843408550866439,-0.08549703183475194,-0.915511751916586,-4.066028996910539,1.1466773564380275,1.4453171952178925,-0.9130596969000225,0.05056325035566019,0.025386916725268882,0.4065930672775426,-0.833893412899051
52750,13.358,0.8490853858870931,-0.16839014410609499,-0.49462556608548863,-0.07774520059466494,-2.923306677218889,-2.555504928726429,-1.19258354260496,1.7434868393899232,-1.2578859917293743,-0.16592221050749215,-0.005312873738199533,0.37882810828962016,-0.8480775841024891
52751,13.367,0.8467856685817254,-0.1622486796487667,-0.5011393571552908,-0.07408604556064588,-3.207721115456038,0.48076430235837714,-4.862996883371172,1.7409942128766847,-1.6416168050058675,-0.2968254235426464,-0.018703972656934686,0.37447344461839766,-0.8564581747005507
52752,13.375,0.8443076212841346,-0.15652863198067038,-0.5076471198595333,-0.07026969268544798,-1.4873403271830146,1.7489850256411024,-4.665344356474279,1.649700262523917,-1.6692918558826144,-0.21754919536707568,-0.028204590135221485,0.3542322565575689,-0.8612357172427355
52753,13.383,0.8416392000681256,-0.15170859661635103,-0.5140434279891903,-0.06623679311760718,-0.39729793250597806,1.1154963318205773,-3.682190611923397,1.505203050693316,-1.698168250198473,-0.06128396939451096,-0.03993359310524302,0.33786331197977204,-0.8589242330496235
52754,13.392,0.8389282819750027,-0.14756978598390516,-0.5201778658567003,-0.061947428032998186,0.750610336310797,-0.952544974924124,-3.3558424617588223,1.3743138023153283,-1.6642838530266775,0.08286160928944637,-0.060407760881949185,0.3261810005542758,-0.8666386087428222
52755,13.400,0.8364184463898686,-0.1435885270850362,-0.5258194592519893,-0.057449227151059185,1.1596711140745593,-2.8923940497263034,-2.0766316109442964,1.3820203740739527,-1.554300103873259,0.16408333750660936,-0.06823075179658988,0.3193334308104641,-0.864264316430463
52756,13.408,0.8340523271720831,-0.1391287505454339,-0.5312709697373635,-0.052450576973187585,0.5049051995267978,-3.614396432513658,-2.118676302492616,1.5305769634972717,-1.5034183980710292,0.21217534493938228,-0.08406853192984377,0.3122873957161038,-0.8714478216046787
52757,13.417,0.8319537598818388,-0.13407074381640074,-0.5363697885255813,-0.04674855107928021,0.08535630673825038,-4.110392838774364,-1.9983307377864301,1.760790088678108,-1.4194085535062104,0.28986830220671356,-0.08603637003897076,0.2998199718429462,-0.8680982180690824
52758,13.425,0.8303131041378524,-0.1281571945126509,-0.5408518269613826,-0.04043740674357284,0.08095403876875758,-4.85659712902143,-1.7682465898537298,2.0020719577879627,-1.242019195968107,0.3249946821387003,-0.1028666654303072,0.287873614090501,-0.8716473968118728
52759,13.433,0.8293948869141664,-0.12159519732688492,-0.5442269472464413,-0.03370103022894357,0.5796646957089385,-5.935002539281828,-0.04532086108828041,2.2172221634832936,-0.9396144715448772,0.36351147261989786,-0.10553485021070559,0.2783709766783445,-0.8756110173757545
52760,13.442,0.8290422824485718,-0.11392263741021769,-0.5468353925967329,-0.02610708718987805,-0.02904599681540287,-6.256732487493587,2.4910596219207406,2.5417731564029626,-0.7235645266840574,0.41436555215257526,-0.10991475867558811,0.24713656035280868,-0.8789539544850371
52761,13.450,0.8287872875149814,-0.10546412835116571,-0.5492459803171547,-0.017827024152578298,-1.3815115383013867,-5.340540385687566,3.9434709485931716,2.809815644264846,-0.6906729232378638,0.451367490399069,-0.11064572748088078,0.2293156708549829,-0.8792867916340771
52762,13.458,0.8281657339129747,-0.09652510818925411,-0.5520302821725328,-0.00932674787643181,-2.8356337165021555,-2.6845030056012273,3.3190939156102086,2.9066172509359927,-0.8113651549605696,0.4220139277429914,-0.12404939576565681,0.2115193742233073,-0.8848021658946331
52763,13.467,0.8270667808991744,-0.08770713374428103,-0.5552181610789498,-0.0008900739011562366,-2.863923865184856,0.09825004632706665,1.7863872371534135,2.883029440861177,-0.9596275448942181,0.4143875854180719,-0.12699245397824327,0.1866020928099565,-0.8817607068067821
52764,13.475,0.825605839118933,-0.07855226171899916,-0.5586943177656589,0.008074644754868977,-1.3330201153222456,0.5050657819975756,2.356706968217191,2.9938694127541265,-1.069912785933098,0.4696295010172534,-0.1382032234031278,0.17173076561789605,-0.8862758472154448
52765,13.483,0.8237666198753979,-0.06948300101964063,-0.5623909851631089,0.01723509082175008,-0.28636169834564107,0.4969273281775478,1.4268285580220283,3.01614790019375,-1.1740607521416553,0.515373555726459,-0.14697992207856855,0.1480622794185685,-0.8891134880896813
52766,13.492,0.8213997096686435,-0.06051567835046763,-0.5665169698866223,0.026436574296438274,-0.1440570989928319,0.061767480914370315,-0.847295166345136,2.970685418888441,-1.323917423948767,0.5346871481487633,-0.1555243969784547,0.13072849446439044,-0.8892341198024443
52767,13.500,0.8184664233195227,-0.051378967913516205,-0.5711364760641795,0.03572171977495952,0.37128687744708566,0.11474149772788532,-0.4510900689933396,3.02683213550941,-1.5074866682296242,0.5235856552616542,-0.16064094773360169,0.09680387780458108,-0.8916166099142949
52768,13.508,0.8168359856619793,-0.04190103605930752,-0.5733453980143401,0.04794090404401352,12.733028871286326,6.737394708508798,9.188198370316961,3.5124377494682846,-0.884939631334141,1.0682535725770568,-0.17336685268325738,0.08041268253836256,-0.8846708358694162
52769,13.517,0.8197004083277037,-0.04398519547743856,-0.5681209022431197,0.058268204028191564,19.81876409207386,16.85610736869681,30.91808456110861,1.14035717058905,1.3417635694542551,2.3099340575676344,-0.15434109517994757,0.07526705097515721,-0.8807057225718016
52771,13.533,0.8247734727317869,-0.08239716148566134,-0.5572258679400469,0.0495858705229151,20.71878659158376,31.754524251441822,60.26607120214699,-4.250726004929584,1.7403404654876704,1.7891022672006092,-0.12719828036379943,0.1473368925029862,-0.8904950626542409
52772,13.542,0.8184122811479828,-0.09647752759389205,-0.56511136047319,0.03927562857122946,22.342641327657653,-11.13460918767291,20.480072769180712,-4.357355393253117,-2.058129405202515,-0.21558085011307115,-0.1394872164205945,0.1770327033325352,-0.8718514459781319
52773,13.550,0.8107359393143031,-0.09740902532703449,-0.5763831942819875,0.03164066747533825,21.13274141439376,-20.72262607282976,12.501115150250104,-1.4994479298904486,-3.0778411430631163,-1.5491685318792907,-0.16660070372229277,0.18727126746005257,-0.8687473812919863
52774,13.558,0.804716214133767,-0.09897803280575193,-0.5847782766728108,0.025875294465935648,26.92531420247737,-18.445021240686646,-14.020361250025465,-1.2824594373320397,-2.33708937149449,-1.0474518642855126,-0.18345578094793533,0.18237797133515332,-0.8666474830410534
52775,13.567,0.8041238219351013,-0.09558399245748812,-0.5860074266308274,0.029049532111343663,32.9007544570561,-32.12454224006698,-6.8332786158781555,1.089680742934521,-0.41723132246582517,0.09994635439510428,-0.17958489590785015,0.18160691195386344,-0.8585773897663231
52776,13.575,0.8061326381555438,-0.09063441449121488,-0.5835636364955804,0.03727002509083724,26.07064779561429,-21.86021001762657,5.333615357832048,2.202813874178639,0.5248730276130644,0.9101509690309396,-0.18321770901651432,0.16528129766404553,-0.8652635746643095
52777,13.583,0.8103369129583025,-0.08764909229534325,-0.5775529689038269,0.045872565083999624,23.227308028061913,-3.8149020085105363,17.16149690975698,1.9434378556553484,1.5435630688886437,1.315045117523905,-0.15757652777467993,0.15405798464945394,-0.8666698014259734
52778,13.592,0.815028242458188,-0.08953998494227217,-0.5702248065690306,0.05054923407300036,19.387153584470248,9.189778573913026,26.57686629472784,0.49105181086899086,1.992672482194999,1.2524079033153108,-0.13606634741568127,0.13943782180683534,-0.8725050687807154
52779,13.600,0.8169628629187032,-0.09239070090845099,-0.5668301098762288,0.052337993226949084,18.624712687481797,13.066473172177513,22.265115094616316,-0.21668452205118532,0.9279796175485631,0.77756276030678,-0.1348512575982274,0.1511505815428032,-0.8712228246915192
52780,13.608,0.8169134955430445,-0.09383251134543782,-0.566723936862717,0.05168926388599236,18.842678385163,7.304374411087608,15.297328746419828,-0.3501171181283,0.035235843623777435,0.06457096469529609,-0.13215721485265203,0.1533571906000219,-0.8731535876660627
52781,13.617,0.8160934100136021,-0.09532328977710525,-0.5678379011857821,0.049650121201935515,20.995069767627477,-0.8590217538936051,9.970048460066195,-0.5929308974086227,-0.26726899046348307,-0.21652273500899222,-0.13097091856237048,0.1591790233465091,-0.8653077918272962
52782,13.625,0.8159618633594211,-0.09718977248939786,-0.5678587717352427,0.04792495205863545,22.51463741200785,-7.8526110151584865,5.470854022508584,-0.5808814044073246,0.02671977422477732,-0.088194023323956,-0.1307439881057231,0.16257821535226477,-0.8613841582614412
52783,13.633,0.8167700189107534,-0.0987168383983673,-0.5665267360071694,0.04678866758331321,18.67855233632532,-9.47677410349915,5.099377592484817,-0.409784909307629,0.414365871870346,-0.0012783967164582417,-0.13314905983282452,0.1675007886987714,-0.86967205264927
52784,13.642,0.8180325590309871,-0.09993266483332583,-0.5645973509079641,0.045453561051190534,12.473156765086888,-6.986595822929798,4.984006741456883,-0.3446817404409979,0.5823477957081667,-0.07463312311862602,-0.1292321785837704,0.16946560211746256,-0.872086902606556
52785,13.650,0.8190581863851489,-0.10102162145039502,-0.5630901464941597,0.043218123931862286,9.322580021768038,-1.9701174454934387,4.801643632883343,-0.46691199594645166,0.49836621676503107,-0.27517137008585446,-0.12365446759990598,0.16869220055844417,-0.863521041356921
52787,13.667,0.8201546247879978,-0.10357826749931244,-0.5616587252440909,0.03402073335309209,12.880902037463951,2.600570488408283,2.9231810656963737,-0.8390700335677848,0.3296657111106278,-0.7260890670951498,-0.12073789653137251,0.17990848703984993,-0.8605246941124804
52788,13.675,0.8203328653476709,-0.1049449327715159,-0.5614936561076661,0.02766632008252205,11.136036746789417,3.7486847825673695,0.4955426264660831,-1.1022300700626484,0.20869327316009184,-1.0685354067967687,-0.11460886936385291,0.18628417639524977,-0.8663267221602111
52789,13.683,0.8200588878640104,-0.10640543544553449,-0.5619005682808778,0.021190920426339573,8.432964648776375,2.100277673854566,-1.035627620774236,-1.164610302473095,0.04983409223004623,-1.0901133894361084,-0.11779553942097161,0.18724667459390235,-0.8634063353201236
52790,13.692,0.8193468325472854,-0.1082020964092444,-0.5627959063877142,0.014961352900286603,5.2514653548392065,-0.02536235371651977,-2.5649671718080835,-1.2007367339729034,-0.11996786365267324,-1.0054459204984887,-0.11901205471108545,0.19237825309073614,-0.8643636395881025
52791,13.700,0.8183060182806139,-0.11017133256442488,-0.5640468496135257,0.009417503265907217,2.5508399859362174,-1.2919805143466159,-3.117954186086536,-1.1613936190235459,-0.24033961853718935,-0.8551591219984359,-0.12467356519364002,0.20551133834739696,-0.8538272094460608
52792,13.708,0.8169556915690708,-0.11257772130226594,-0.5655885516476485,0.004386903737979193,0.21344083570468256,-0.9687781606458485,-3.045685920196039,-1.1772410079416666,-0.3609503450929056,-0.7016200352254044,-0.12002957784816116,0.2052730559754624,-0.8550287087487382
52793,13.717,0.8153006120692649,-0.11554498146722585,-0.5673923374433928,-0.00045235798257093365,-0.7756278766600276,0.7718290363126363,-3.1812610634925473,-1.2779760744213058,-0.4480080059904415,-0.5937675165407196,-0.12609150231701333,0.2165490679889473,-0.8645228975418047
52794,13.725,0.8135084758239266,-0.11938043792757391,-0.5691428984037862,-0.00535088771982987,-0.4964190798775889,2.477009355187167,-2.9510951024206773,-1.4532046911941028,-0.4634987663087027,-0.48526466574562765,-0.1280972670129635,0.22503650820355778,-0.8525278399842486
52795,13.733,0.811510525696148,-0.12440823584361747,-0.5708442443278162,-0.010493152836275199,-0.40796986932305035,3.926463700346347,-1.2858047161941033,-1.7308026418425257,-0.46667481605874883,-0.3671712301353518,-0.14081749092166088,0.24405232282764924,-0.8468770724906147
52796,13.742,0.8092019353515579,-0.13113898929463802,-0.5724756385385247,-0.016322885467428477,-0.8950414159414549,4.85621335152405,-0.3051758643050417,-2.157254800484799,-0.4880274770078911,-0.2649017635379237,-0.13989035764036112,0.2513225872275725,-0.8356074246525986
52797,13.750,0.8063511097038427,-0.1395064616286469,-0.574284143098867,-0.023098875046988303,-2.265828610583374,4.762720578281687,-1.0838338789576705,-2.629799454387871,-0.5642419400187944,-0.2286291044583547,-0.13523816196349675,0.2681833207044743,-0.8386800322604194
52798,13.758,0.802970842777923,-0.14916904114250845,-0.5762149879576609,-0.031027575897732116,-3.2597725364241046,3.771830463603507,-1.6864825865828954,-3.0512744558298674,-0.6386072272439977,-0.278607134050899,-0.14335742834941329,0.29594710860353246,-0.8244220155141664
52799,13.767,0.7988739665284839,-0.1597179196540789,-0.5785317567279921,-0.03989458862607709,-3.5421736894564324,2.922664680094866,-3.4620530453378597,-3.3803241816854985,-0.7765724943158644,-0.35334502915863836,-0.14631308947108812,0.31007899581363896,-0.8185076938728163
52800,13.775,0.7943336433624579,-0.17064565041514465,-0.5809604117451072,-0.048980863629293506,-2.631383715623792,2.418620050337349,-4.560138554077801,-3.49343648872345,-0.8640278183395073,-0.3514769916490584,-0.1590882063289596,0.3419743891672208,-0.8003439504441838
52801,13.783,0.7895772561270726,-0.18169228784775449,-0.5832673777749655,-0.05792093893409672,-1.6422888764929888,2.1299681731770415,-5.051450084175664,-3.5116947487233583,-0.8688985019832568,-0.30340052161496767,-0.16545442451744086,0.36172964377326616,-0.7961266363692582
52802,13.792,0.7849013743130744,-0.19286114993828152,-0.5850405135777982,-0.06679825535563973,-0.4595106555940805,1.752193958014405,-5.277073462515009,-3.5229781910294204,-0.7688946271775657,-0.25179211331070195,-0.1672312606163794,0.38045447702652974,-0.7806634260073768
52803,13.800,0.780516224762681,-0.20379469418126586,-0.5861263021660624,-0.0756181421017075,0.4708784783250927,1.219782508037489,-4.3091182285784955,-3.474846370970476,-0.5891564750214286,-0.2372465007417499,-0.17186398590875457,0.4053635608178305,-0.7820291380056917
52804,13.808,0.7764115558742937,-0.21439163243276604,-0.5865835866458929,-0.08450455446490669,0.6824056821953413,0.3166579800301937,-1.7829971596976735,-3.4186186386903703,-0.43154864518998487,-0.2643531807074105,-0.17758777840996046,0.42624113304055494,-0.7572953762884196
52805,13.817,0.7721014953179767,-0.22474105586844312,-0.587017718494863,-0.09359987664504728,0.43443776168125303,-0.16429050281680938,-0.896184194023084,-3.4135995373886616,-0.43191639551727645,-0.3390035760759565,-0.1773955101858688,0.44815732423811144,-0.7454704058778818
52806,13.825,0.7676573377430704,-0.23486879266593577,-0.5872868452993478,-0.10311655240167433,0.04128239642673505,0.0009882252917388467,-0.2620704429645453,-3.441226619758936,-0.40041795639944294,-0.4445869398097457,-0.18648368887401776,0.46909345090405075,-0.7329584115973082
52807,13.833,0.7630813914091934,-0.24455920687484342,-0.5874192052904148,-0.11329722712288573,-0.5255173536024977,-0.3710046482353648,0.0768678044496851,-3.467902017720549,-0.3390065261512619,-0.6221769876917362,-0.1887648253279434,0.4858476152943016,-0.7138446798612254
52808,13.842,0.7584320351032852,-0.2531344806179825,-0.5876912039726784,-0.12378542573541451,-0.9707401790914516,-0.7392117210671368,0.33469784173469924,-3.3078808209413784,-0.334519222766861,-0.8489552271753007,-0.19831878970441422,0.5068083348263912,-0.7064616724015099
