packet_counter,timestamp_s,q_w,q_x,q_y,q_z,acc_x,acc_y,acc_z,gyr_x,gyr_y,gyr_z,mag_x,mag_y,mag_z
53197,0.000,0.571184681462865,-0.2791630842486139,-0.5932622881978944,-0.49381766823106443,10.387974725700987,1.1437922552649695,1.8127373076066409,-0.24371600716277236,-0.09973771213960415,-1.2752266373578911e-05,-0.4472899190807217,0.5234383039125364,-0.3656873104688107
53198,0.008,0.5711549650734874,-0.2800838903912258,-0.5928381442206222,-0.4938400094891751,10.08044112901458,1.0465985237811708,1.7459137447497879,-0.17044352298707732,-0.05261979089120994,0.144669932702874,-0.4429297686141847,0.5183556221383228,-0.3609681724216326
53199,0.017,0.5716826362725101,-0.2811831651756208,-0.592331662590196,-0.4932121171458251,9.892450697161635,1.3538255541302253,1.6242789805922142,-0.07298074734800462,-0.03002110365365599,0.33105218071514403,-0.45077584880303145,0.5201085697648603,-0.3564031684899021
53200,0.025,0.5724371684516665,-0.28261258513372645,-0.5922396904918936,-0.49162787136729397,10.497140261839201,1.801833718700964,1.0542981795811863,0.08305510307872066,-0.15861375200241767,0.5046734311934283,-0.44245147945819296,0.528867103316594,-0.359599531890732
53201,0.033,0.573360946693541,-0.28432794231667907,-0.5928039871152367,-0.488874502183258,10.989789460528867,2.430098101761728,1.0979955095575666,0.3004347577913334,-0.3407218523368758,0.6791476405088377,-0.43993922858080897,0.5219387575445806,-0.3692817092292535
53202,0.042,0.5755172954312417,-0.2857509126207711,-0.5928279514361768,-0.48547016241154445,10.834681670687358,2.9837181569847266,1.4348803908063719,0.45538639984800633,-0.10191126545266492,0.9085466227580605,-0.4412202368578619,0.5269001588892616,-0.3610368042643062
53203,0.050,0.5778872825461253,-0.28768016512999744,-0.5925697241833081,-0.4818169084243002,9.462790947997327,3.06196703985509,1.8527767757494003,0.40403134280044295,-0.11142022204699792,1.0607240833309062,-0.432402770754598,0.5280837204480335,-0.36489011431738777
53204,0.058,0.5791663993420708,-0.2898986207981087,-0.5920893559698183,-0.47953651172746165,8.848088672579069,2.820182354457753,2.3547217138429457,0.06552332256196235,-0.17063081056485105,0.8013991542151742,-0.4254882559628579,0.5313995471400205,-0.3756140092585252
53205,0.067,0.5801172672819781,-0.29123243462371584,-0.5913237586830657,-0.4785225570872969,9.439040174384605,2.6089368748808557,1.4924716374031386,-0.04921761088437662,0.013989473815368489,0.48542327328067714,-0.4199921303264126,0.5403435134342791,-0.35930015634060936
53206,0.075,0.5808032536396283,-0.29192146869039615,-0.5907253140012366,-0.47800945605438094,9.9646426948728,2.636531056893045,1.2921211340762375,-0.0315453636611105,0.06528856254518271,0.28140552631914195,-0.42337834231012317,0.5337102912879154,-0.36365677586529005
53207,0.083,0.5809734977361196,-0.2924720624889162,-0.5906465466687434,-0.4775631314287433,10.02082739934784,2.628153132927788,1.1527859798383762,0.0010739639966542648,-0.059694526963342764,0.1564781516885062,-0.4255430874118631,0.5385511613499553,-0.368113410776423
53208,0.092,0.5806371993501799,-0.29280479782354496,-0.59123624153036,-0.4770382582176684,10.044085361164356,2.856867391938637,1.0851730084811295,0.08250801344995151,-0.20286037670712997,0.028655266630628146,-0.42285465306506076,0.529757859158998,-0.36849858290323206
53209,0.100,0.5797575456058437,-0.29244405623916725,-0.592317694047731,-0.47698785267703625,9.638373668044986,3.0211040445782906,1.160458657686834,0.12824917139352163,-0.23445612893463463,-0.23233415371083996,-0.42357583940318927,0.5370678403469704,-0.3700382109784276
53210,0.108,0.578563786449349,-0.29137808701367085,-0.5936522565571325,-0.4774303652913907,8.980676261426895,2.843611762447552,1.2140067670715473,0.16135720482612878,-0.19566861797425855,-0.455593962631349,-0.4326592107227444,0.5307853716490138,-0.36320853363613237
53211,0.117,0.5772246584969044,-0.2899060616205406,-0.5949927211043974,-0.4782779849539223,8.548318182439008,2.7047509873883713,1.3331683688545735,0.14982270259017552,-0.14231627439251926,-0.5853781250196226,-0.4365623801806128,0.522236199079512,-0.3636442101807106
53212,0.125,0.5759681296735001,-0.28834199766264085,-0.5962085198940411,-0.47922333706747305,8.51060740824369,2.3716367045068614,1.1694635610004505,0.1397294361864183,-0.09463625327018746,-0.5940396229671447,-0.4448061710887268,0.5172794335533943,-0.3714704717724857
53213,0.133,0.574840185239643,-0.2870355661152844,-0.5973975846140899,-0.479880684249515,8.586069271529471,2.0818877957883783,1.110838543129683,0.15209496646233583,-0.12415881667516705,-0.5004277836994065,-0.4387290115543396,0.5256146093221009,-0.3678428149091916
53214,0.142,0.5738991506638821,-0.2859158079312052,-0.5985632142934592,-0.4802228588239047,8.543529235744542,1.8961611042682558,1.1130561576207987,0.18211872212322866,-0.13707844450772178,-0.4080116699358108,-0.44165199066974353,0.518281449041313,-0.36877118813645493
53215,0.150,0.5732135052947992,-0.2847206256542529,-0.5995936540247898,-0.48046632840179465,8.219023132744901,1.8616939031268327,1.1372425503854096,0.20920214563457668,-0.0813887219808847,-0.36557076523616405,-0.4485269052175388,0.5197972207742395,-0.3634643583105341
53216,0.158,0.5727560089131085,-0.2835241073219291,-0.6003844987471149,-0.48073182595435343,7.889973427357605,1.9093706420693888,1.280393723684337,0.19420280610608745,-0.01320456679557022,-0.3260442500048124,-0.44697270079782325,0.5221226215247157,-0.3756829835850628
53217,0.167,0.5723528457518007,-0.2826678781250163,-0.600859291454169,-0.4811228559415052,8.19339257297423,2.0497772866312,1.4865837502658419,0.09727225441143937,0.005666273468516846,-0.2649089472782297,-0.43947235872136914,0.5222107020774148,-0.36635098051834536
53218,0.175,0.5721743541850415,-0.2819627162177058,-0.6009310519992495,-0.4816590140536562,8.629312614795698,2.0758191889502493,1.3519783741961011,0.024462009678273226,0.08631158373338248,-0.2091885543685404,-0.4438532581797622,0.5112063258376697,-0.36823178655635225
53219,0.183,0.572402730074773,-0.28119149850033237,-0.6005094891670214,-0.4823637726803781,8.524315607185482,2.1992434340042197,1.2744192687487383,-0.01968781615700749,0.23030384364745893,-0.15904224226877559,-0.4368087224924024,0.5161352764524088,-0.36334392558621453
53220,0.192,0.5726906210683682,-0.2805526510025784,-0.5999379647115273,-0.48310464813903753,8.443557692747623,2.259901818099509,1.1891905140118375,-0.056411806118085744,0.24724630741785827,-0.1282265827741439,-0.4490151225888367,0.5205296096386058,-0.3634748812281688
53221,0.200,0.5729590446145345,-0.2799082980597814,-0.5993599422851045,-0.483876985871072,8.600317725769518,2.284806021112463,1.1140122766532854,-0.062081500134708846,0.24720924929309937,-0.134380661854618,-0.4474596418849165,0.5155288038361385,-0.37586809418077327
53222,0.208,0.5733221054267648,-0.2792265264342308,-0.5986706749977581,-0.48469344256161023,8.694935285729363,2.4231387027259106,1.1920439341634035,-0.07000216535757342,0.28428551676629243,-0.12769782501090896,-0.44554253232327584,0.5116690880784834,-0.3709342691497191
53223,0.217,0.5735120923936897,-0.2788817921857039,-0.5980143707966131,-0.4854767123006348,8.870139205727911,2.3548122828303497,1.2351229030695625,-0.11893798994556964,0.21223564265232872,-0.09662999349777507,-0.4402324620629151,0.5088183415365917,-0.3625670064991732
53224,0.225,0.5735382295079371,-0.2786118926240935,-0.5973601893400375,-0.48640530093015694,9.26281439500469,2.089633195390885,1.1383211434622822,-0.16122433921067836,0.19060722929430107,-0.12575735223373352,-0.4499581750589155,0.5143823288258713,-0.3680624126681708
53225,0.233,0.573602996171892,-0.2781338728437162,-0.5967013791619403,-0.4874101103442797,9.374319066330775,1.8841677230376053,1.041904527540001,-0.14151906771662234,0.22560719290716533,-0.1603472724395228,-0.4440096584713131,0.515242951847615,-0.38023500647832364
53226,0.242,0.5737393425892526,-0.27753189602626016,-0.5960054897392512,-0.48844310789896267,9.340679120800866,1.998030114277132,1.1340130590575463,-0.12832882834822879,0.2583778594252951,-0.17176482810750518,-0.4443408486191725,0.5209715106958853,-0.36832806982591243
53227,0.250,0.5740164482669434,-0.27690427754952823,-0.5951361236718073,-0.4895325653055918,9.614894152253099,2.319378872701305,1.2752986343542874,-0.1435137429645213,0.30807350206702316,-0.15371972031335315,-0.44115493498218855,0.516316822523262,-0.36996969147485315
53228,0.258,0.5745010770012782,-0.27656543250127746,-0.5940690755686999,-0.49045082069734947,10.17820478625099,2.6146866379424805,1.294702420363634,-0.16772002852139423,0.3196186952393075,-0.05201361207765163,-0.441361558441298,0.5167564056712601,-0.37510269692701914
53229,0.267,0.5751150188573377,-0.27666201214117775,-0.5929822520972498,-0.4909917461835715,10.758866330220654,2.719353158041664,1.1832311264872528,-0.16655560957642151,0.26229635713608496,0.07902296938318601,-0.4362455346680258,0.5155496650196726,-0.37358889065527723
53230,0.275,0.5758557763295616,-0.2772358618552392,-0.59203460176198,-0.4909434102682253,10.908285617465886,2.7628570746058836,1.0388378976109287,-0.12281619055399697,0.1653070297948146,0.2317726414076261,-0.44184955553923005,0.5206624796145463,-0.37514335186019515
53232,0.292,0.5773455426824045,-0.2789854992813263,-0.5907066974906588,-0.4898007891737094,10.6117488346673,2.797312725736261,1.2952545003380393,-0.05549953371225356,0.05451421110966449,0.32786881338896373,-0.4452674668527312,0.5201742203716355,-0.375163701794603
53233,0.300,0.5779420827348928,-0.2799785268715069,-0.5901557059663542,-0.4891944564386127,10.226444513738974,2.8607395515809166,1.4988733355094712,-0.06391681032868649,0.0033066894594130894,0.32252841781521546,-0.4370188812780148,0.5170677546618808,-0.3679933205359674
53234,0.308,0.5781859925733562,-0.2811294063042606,-0.5896872857439022,-0.4888109245249813,9.865589395658318,2.761253507620383,1.4069668109095368,-0.13144843051975263,-0.06281068090292437,0.26841955663002104,-0.43873450092924965,0.5236685260783026,-0.3670919028347292
53235,0.317,0.5781343500137832,-0.28220235056867105,-0.5893677732244207,-0.4886390636780339,9.78434136092452,2.4849751869968855,1.1697105947618045,-0.1539013133133832,-0.09994267931131813,0.18212939201624184,-0.42778256027288625,0.5210271405186427,-0.36234775669062474
53236,0.325,0.5780188847511342,-0.28302025931970376,-0.5891555012142446,-0.48855859124024764,9.642839569351171,2.2991386475550413,1.0886095359972618,-0.12343552300341303,-0.08827335150900077,0.11948404921104487,-0.4358299609310881,0.5224803287009673,-0.3636411739646799
53237,0.333,0.5779890252290039,-0.2836507943716607,-0.5890516851879847,-0.4883533820343087,9.556588264239217,2.0380442287511213,1.0099626119100384,-0.06155250001500956,-0.07646161459401689,0.11162791543676084,-0.43171173635637455,0.523498569553857,-0.35922588988758447
53238,0.342,0.5781351238646071,-0.28426262148343107,-0.5891262098735544,-0.4877344045906998,9.596323328699835,1.9113985042371997,1.001037691281925,0.0331088321029041,-0.10408219214829093,0.1749087107764251,-0.42535896366375603,0.5225150973401907,-0.3599025859112284
53239,0.350,0.5785093702108783,-0.2848701701079986,-0.5892089385242227,-0.48683541523189605,9.55361623591786,2.0856729700422436,1.206087082144195,0.09004856368129807,-0.09090324978941536,0.23791777155611293,-0.4282486168152831,0.5324734178156675,-0.36538974207430114
53240,0.358,0.5791058864364818,-0.28551209400014904,-0.5891694526302418,-0.4857968428897507,9.719588025485384,2.252655203976408,1.4718308349602798,0.10659807900388393,-0.057889347963908266,0.29777957200322663,-0.43232643929678916,0.5221249394339972,-0.37533177921890754
53241,0.367,0.5798393587832237,-0.28622273096896833,-0.5890493561456808,-0.48464803961935604,10.04075284926477,2.2660039730783947,1.4708797936075082,0.11273065690684915,-0.04205112082725544,0.34326242723502004,-0.43089510167899225,0.5285163498681871,-0.3707429962506682
53242,0.375,0.5806599136271529,-0.2867570115550963,-0.58887899101099,-0.48355559657228275,9.97479818851524,2.1352629584527123,1.4806090216575183,0.12952929739058025,0.0005458162551874074,0.3255040362757249,-0.426462634992416,0.5367680809027576,-0.3759162637499399
53243,0.383,0.581461832540386,-0.28712890067438646,-0.5887289938939096,-0.4825529022241601,9.594917970717388,2.201271747904962,1.555491861701815,0.14005811531092174,0.02172634264926878,0.2853902864985921,-0.4267878389099938,0.5258865538549351,-0.3648282058719972
53244,0.392,0.5821628338143977,-0.28754385804240756,-0.5884891785197114,-0.48175247938383614,9.313515951870372,2.2783198228181454,1.706557415094114,0.0881240418984975,0.02795103349301276,0.2593994735534275,-0.41995589049159543,0.5224733749731227,-0.3642575385537817
53245,0.400,0.5826892330112243,-0.288056631330309,-0.5882604680718873,-0.4810886161439184,9.370611886396333,2.217791166617621,1.6063365700436048,0.044025199606405524,0.001293404059783109,0.23202892505625888,-0.4299325879690424,0.5321968374642704,-0.36881764042128773
53246,0.408,0.5830821518465316,-0.2883964379337965,-0.5881567688242963,-0.4805354451768154,9.395006568777685,2.18062108947748,1.4882112427355114,0.05751292452435651,-0.0079945320865192,0.16910282235738539,-0.422858018950513,0.5326920504350258,-0.36803815087431235
53247,0.417,0.5833022261606181,-0.2884664006824282,-0.5881842335537454,-0.4801926238835674,9.324487371397629,2.289307549244638,1.6643539014771076,0.06786787711280316,-0.003009357278543076,0.07130615812197133,-0.414826730590835,0.5305273345718691,-0.36454067217120595
53248,0.425,0.5833533481557079,-0.28856801291625467,-0.5882515736488401,-0.479986936506352,9.304695922601438,2.1977667705912274,1.697321621933274,0.036879939466983404,-0.027386532497481433,0.035558999420455616,-0.4235435978620364,0.5387350253300901,-0.3744486516838793
53249,0.433,0.5832514219559459,-0.28876190075462616,-0.5883340110875398,-0.4798931494161903,9.304878274420286,2.091327411537799,1.7725053699757907,-0.0010040016045858328,-0.05272873905411536,0.013072388006107433,-0.4199012509040706,0.5382722630892764,-0.37173189158816583
53250,0.442,0.5831287665659706,-0.2890909695135714,-0.5882861518610301,-0.4799027573139113,9.273529687592099,1.9993793616171163,1.6704903862301352,-0.05073427883967289,-0.046989188263034845,0.025954101652797348,-0.4176635232858693,0.5306509329106834,-0.37725880739698225
53251,0.450,0.5830514423166472,-0.289718148247494,-0.5880516633990782,-0.47990587760736864,9.277437844107556,1.8984938381680085,1.649990580749543,-0.10956528991458767,-0.04887502670849097,0.08630884199565125,-0.41841350055917287,0.5345801859467852,-0.3748600160323925
53252,0.458,0.5831750861718663,-0.2904523501077103,-0.587531823406304,-0.4799485468987367,9.445924931296071,1.915033871873452,1.6230047027822176,-0.14850518385967018,0.00837177183268644,0.14092854295949245,-0.4245871644436525,0.5244171403076395,-0.36528648279487314
53253,0.467,0.5836590681917269,-0.2914434427743911,-0.5865974138205952,-0.4799023711968563,9.84706578949205,2.062098527266546,1.3302731830730918,-0.19379225000614567,0.0811800215655546,0.25974055878653496,-0.4212005796896306,0.5364212141260218,-0.36098085591187784
53254,0.475,0.5846225524768742,-0.2928676571725721,-0.5852685617925918,-0.4794848455320614,10.482966221236762,2.2851672379536048,0.9721095570278442,-0.2125456353973634,0.1253216370210099,0.45740575116944626,-0.41308842484344205,0.542208469853223,-0.3685454056063154
53255,0.483,0.5861028589618221,-0.294658210575319,-0.5836874847775034,-0.4785069464192152,11.262933133464875,2.5480678029087938,0.6389955951648014,-0.17651705880705332,0.1507557942161996,0.6633745248985803,-0.40431387403725993,0.5422270131274755,-0.36652817205730853
53256,0.492,0.5879061903952809,-0.2964233932900421,-0.5821232520521181,-0.47710795699253583,11.899139939459813,2.646917780280409,0.6173681709621809,-0.08841570747636111,0.16494751625803744,0.7557667246872259,-0.4013769061127899,0.5453914265692693,-0.3675133802135537
53257,0.500,0.5894791533957291,-0.2979312811917472,-0.5809314956516768,-0.4756783332875325,12.303792920027508,2.651792620320581,0.6643747938683648,-0.022328882710593207,0.10949221655435451,0.6689561905898759,-0.41232356072350385,0.5470493399152627,-0.3729806242639284
53258,0.508,0.5904917144719829,-0.29901105878065926,-0.5803971842334609,-0.47439543674099327,12.588860356650228,2.6434346342931687,0.6858515626444751,0.0515038523475844,-0.0016528280326786123,0.47720637470966304,-0.41120100973086976,0.5476650841686593,-0.3595495660990857
53259,0.517,0.5909450251595745,-0.2995978019442217,-0.5804969947579839,-0.4733374836058206,12.671804507206993,2.6198324091756144,0.9679080077355926,0.12038360698626062,-0.09369740942288354,0.26480200492688183,-0.404803299916342,0.5512621270306065,-0.3663733786862648
53260,0.525,0.5908351633904726,-0.29981189151827103,-0.5810352193005882,-0.472678234466014,13.016820329848098,2.5480648786167586,1.2704344924359376,0.12569581469834934,-0.16284057235521332,0.06140276745156857,-0.40353153661406804,0.541673852424681,-0.3733536290587952
53261,0.533,0.5903593779065394,-0.2997047148471372,-0.5818449821508271,-0.47234447764539855,13.634775998010197,2.3641466160098012,1.4485529669339279,0.1289990199423654,-0.18945635795334592,-0.09216398103284153,-0.4055538363451128,0.5471351025586804,-0.36389809835914694
53262,0.542,0.5898097408503408,-0.2994873319320936,-0.5826663209375625,-0.4721565058911462,14.279829140256773,2.4854679195705964,1.6901650063689067,0.12015142297692667,-0.17960649292076264,-0.13598492106175172,-0.41190278566144234,0.5517758832756143,-0.36374441624285486
53263,0.550,0.5895154183994731,-0.29972610464747423,-0.5831567528596168,-0.47176692895578576,15.09061403634045,2.7099394249952997,2.0193979148763637,0.06544595986485566,-0.16293585855210407,0.00827013537109108,-0.408415308549247,0.5516854848136336,-0.37324023145742863
53264,0.558,0.5896224148049585,-0.30074938811878366,-0.5830898153045575,-0.47106420028892515,16.116148884047035,2.900360132213173,2.152209966890555,-0.03396362092623779,-0.14323355256539147,0.2501949069441374,-0.4075651573263375,0.5564885191802766,-0.35594439180842347
53265,0.567,0.5901771172454616,-0.3025633593516172,-0.5825310556028394,-0.46989781135470654,17.43563105312944,3.233408197722401,1.9321803139437754,-0.10256988695458305,-0.13463595522752803,0.5117504787786333,-0.41093991612528613,0.5605830929222609,-0.36186773520781046
53266,0.575,0.5909636965258942,-0.30515052193833175,-0.5820565975618343,-0.46781960795156563,18.164278331951646,3.2722720013944477,1.5763128533708803,-0.056149871960952016,-0.27170338795456594,0.7688317461042599,-0.39797621394096633,0.5549356608988453,-0.3651375596455123
53267,0.583,0.5915565408842548,-0.30828871420010373,-0.5822562378467218,-0.4647543449205012,17.941448754180662,3.1823513968204766,1.3078125959220164,0.06589758856314129,-0.5280460656422857,0.9099057138611013,-0.4063027969721125,0.5657121328821058,-0.36163837783551755
53268,0.592,0.5916854289476292,-0.31152798399569887,-0.583364840049281,-0.461025087986449,17.10622822092453,3.1553625047561167,1.3110039305002303,0.2115583419216444,-0.7840618550907407,0.8972637570286929,-0.3994493316008056,0.5637359168176471,-0.3640110947840689
53269,0.600,0.5910934701582242,-0.31473164019609956,-0.5853849754235617,-0.4570305621554624,16.62863430395516,3.3213286045384267,1.6905691956570925,0.29959571111160643,-1.0271518350503008,0.7776178648143177,-0.40510116410032443,0.5742821666351416,-0.35902522496966277
53270,0.608,0.5894416006190066,-0.31750710504403584,-0.588289225831616,-0.4535015154072779,16.523348518089843,3.207504404966609,2.019231621025398,0.30987583594260526,-1.2184715864322788,0.4679280960545318,-0.4087613401877503,0.5750122375902262,-0.35930307192716654
53271,0.617,0.5866489223302342,-0.31906900703008895,-0.5921015144512283,-0.45105854084161895,16.727698523437894,3.2751659511551265,2.2717535027011873,0.3360236359480454,-1.286176432514012,-0.052629073683868315,-0.40620087230336044,0.5739538431326584,-0.34218323422577995
53272,0.625,0.5825965217202218,-0.3191649816284675,-0.5967809301704339,-0.45007502570850466,16.95817291740765,3.3216525378676547,2.574347008837037,0.328220513833737,-1.3130207854590654,-0.6681085878453769,-0.4257014993402911,0.5704966239744963,-0.34644365206180544
53273,0.633,0.5776237781846641,-0.31798119133313674,-0.601901995096169,-0.45050274264790513,16.967347103849836,3.661629830856961,2.605477336290135,0.27817590066205916,-1.2535548202703106,-1.1822915354122518,-0.4359659578690391,0.5688016240799978,-0.3450376454263442
53274,0.642,0.5724775836744262,-0.31656743938913046,-0.6068228647530551,-0.45146481958375867,16.725202425116912,4.417188198022433,2.720947020031027,0.19748465561449996,-1.1859999925315055,-1.2906361643984312,-0.45206320461289684,0.5621892631171684,-0.3472899608292745
53275,0.650,0.5679863059821528,-0.31648416123299905,-0.6110733363866063,-0.4514628550199179,16.815065568514147,5.135936989245754,2.6771912251700183,0.13518185066519428,-1.2186987649796752,-0.8432909645837787,-0.45429763412206636,0.5658998835339119,-0.3422142056599805
53276,0.658,0.5647565218185875,-0.31873362906880065,-0.6145898625856384,-0.4491528087087624,16.587228123435374,5.330786897224933,2.3267477998748403,0.1784879842728305,-1.3712331480440536,0.0051421021789303445,-0.45800764366263425,0.5686478929205233,-0.33567514863671366
53277,0.667,0.5627684380209703,-0.3234762876883007,-0.6177858896504198,-0.4438416057780893,15.613551205833557,4.920715756791312,1.9365531985554596,0.35025370466802985,-1.6507427762111744,0.9337263156929082,-0.45319304781173275,0.5648298995299361,-0.3263256915781334
53278,0.675,0.5614858682491022,-0.3298101522848163,-0.6211664928473714,-0.43601728333876333,13.796235430822891,4.21744345652612,1.8364997646228853,0.5872732685341506,-1.9427741254386781,1.5659514066781943,-0.4585502858244156,0.5823910069097537,-0.3282407014086302
53279,0.683,0.5601230122634533,-0.3366237145804204,-0.6250340863818331,-0.4269415378899354,11.76643071502134,3.559739013790179,2.252495977405475,0.7550772773930339,-2.170734616726424,1.7557352412099507,-0.46614363081266946,0.5794939021822307,-0.3248504891822484
53281,0.700,0.5545022151373821,-0.3486206227542288,-0.63489181646762,-0.40976009588616236,9.661046080499823,2.827864319503545,2.5151735899402397,0.7808008198763103,-2.404713624956214,1.331897138312344,-0.4565202559000975,0.5909092975117033,-0.30535587476411263
53282,0.708,0.5502827406973481,-0.35334080108191307,-0.6405608454944038,-0.4025183061686791,8.016626658617913,2.0091265921292587,2.0067467297385146,0.6961292557770843,-2.4740363876363487,0.7576147881960441,-0.47093878364763503,0.586045248356848,-0.3034618296084847
53283,0.717,0.5455611225747766,-0.35768968788992245,-0.6466190726106666,-0.39535417494732683,6.7813636282181955,1.3710586615908984,1.5049407628334333,0.7270323078372315,-2.55844598037393,0.6070192421777786,-0.4768763384295224,0.5888326622012457,-0.29278874209990735
53284,0.725,0.5406196339676707,-0.36213514542486874,-0.6526899359327032,-0.38805205237047136,5.332602525242725,0.7401393162233386,1.1523760328975958,0.7184085646528169,-2.616086031270227,0.6182872238539238,-0.47354179533862556,0.5967537518240514,-0.2813641419538521
53285,0.733,0.535772767709751,-0.36699484075880506,-0.6582953821614292,-0.3806698281476884,3.7748810513090554,-0.23495552222324032,0.6041289183388855,0.6427982642388826,-2.5868571326848255,0.7430303556413393,-0.4796630617337736,0.5958004124310453,-0.27895825677372876
53286,0.742,0.5313454609565825,-0.37246845287859803,-0.6632561631168455,-0.37286795895944375,2.4173055770138085,-0.9035252553577632,0.33544710086160723,0.6102605698352626,-2.534141960886733,0.9904351437786459,-0.4814216814026156,0.6000155174556707,-0.2721747062336555
53287,0.750,0.5273043298976392,-0.37887487238518036,-0.6675161077512868,-0.36445331750292503,1.286462907296827,-1.2304605978307177,0.07695608347638574,0.5627746810006511,-2.523557260438484,1.314174859405852,-0.480519488516581,0.6089015360178902,-0.2619978398477103
53288,0.758,0.5234530901166207,-0.38670985166686894,-0.6711459390832719,-0.35498659344147454,0.10684636471073292,-1.3628650930001338,-0.02471792300738101,0.5160632113500437,-2.6393601497985366,1.7496637908414123,-0.4741944731687286,0.6194292425611324,-0.2588775051198787
53289,0.767,0.5198137178197227,-0.3959212555986424,-0.6742558090953558,-0.3441208538185379,-1.2308986398354067,-1.4944383045473015,0.23060020872423212,0.5470618736699876,-2.7902497946537306,2.2115571719821596,-0.47600878843593414,0.6183453511014673,-0.24447514588288685
53290,0.775,0.5162988839593207,-0.40585317445947994,-0.6771688601085902,-0.33190510406252616,-2.917689640288709,-1.858960631739924,0.5294825789085358,0.6735791834905798,-2.9375078507128705,2.5232563556847643,-0.4613941246000604,0.6259574096429341,-0.23980157901055477
53291,0.783,0.5128625628542393,-0.4160716066061817,-0.67980909087512,-0.3189294745900347,-4.696225992186071,-1.9109168022400018,0.6770187168009274,0.7486965859714872,-2.9882483819065833,2.695840043331106,-0.4505088298799952,0.6402490485163956,-0.22594068658843022
53292,0.792,0.509760881639296,-0.42635286083181345,-0.681793389872231,-0.30581833682333043,-6.73293637874791,-2.1599338807179653,1.1817452166044398,0.7470154127624706,-2.87346396953953,2.814575213009098,-0.4412059870236286,0.6512024307519464,-0.22939489496278687
53293,0.800,0.5073469096116662,-0.4361697889371147,-0.6828244237097175,-0.29343795751663926,-9.050158210993057,-1.9226525268466592,2.0247252539442813,0.6846485300107503,-2.534188272715651,2.801294961490854,-0.4327590571505929,0.6569448970559062,-0.21595897095848055
53294,0.808,0.5050332526799802,-0.4449345455403127,-0.6833407237743356,-0.2828782761257616,-11.557366416693533,-2.1714850430233983,2.3862773619255964,0.48581974404034467,-2.188086468786488,2.4719010975424784,-0.42426192105410354,0.6660402766003576,-0.2093909435766303
53295,0.817,0.502436405924606,-0.4521573575923839,-0.6837965250311321,-0.27483393955620977,-13.2535326503875,-2.426758842037171,2.933226117444583,0.22205218518158945,-1.8476217295013377,1.9073476928738278,-0.4229568487320576,0.6734993531292416,-0.2209276590376207
53296,0.825,0.4989056919393511,-0.45800835318134486,-0.6846142304139041,-0.2694899153612395,-15.510402498493542,-2.817743571983255,3.6749793488103295,-0.13860515159967962,-1.6552836931854216,1.2585620656652672,-0.4026191049350751,0.673963684132445,-0.19758836874751995
53297,0.833,0.4948196064226592,-0.462785141389184,-0.6850790830416975,-0.26767540041599885,-18.474618860261238,-3.7835256018871806,4.652987019978889,-0.6774275424060915,-1.240769184024267,0.6716945632712122,-0.4060419295239141,0.6798297487752191,-0.19693661341734287
53298,0.842,0.49089648196958946,-0.46667091778796316,-0.6845955105277515,-0.2693842709700552,-21.377161492820576,-4.288656583292628,5.310970039112829,-1.198185578849562,-0.6484046983016111,0.22937180914663266,-0.4144600358533947,0.6834005454881774,-0.18091761816051685
53299,0.850,0.48837473240830964,-0.4691304657481318,-0.6827692159244315,-0.2742862093470805,-23.400412099282008,-3.7180776054324456,5.493001305111212,-1.4861759140518784,0.1931750162517201,-0.12749575219587775,-0.4164467789901497,0.6868624004649024,-0.17632600665319195
53300,0.858,0.48829450092603016,-0.4696898283287208,-0.679272317402858,-0.28204443681818525,-24.057917303981483,-1.8244775301315923,4.9601600967037145,-1.570439865971602,1.2396185777999587,-0.4182251076712436,-0.4162922480264805,0.6816074442569616,-0.16406707439591794
53301,0.867,0.4912396974066319,-0.46794406914801256,-0.6740007776275122,-0.29229242138404765,-24.152173819094934,0.32374648370738407,5.149239601904777,-1.485538693039005,2.3789075383430145,-0.6668739387125995,-0.4104277604815801,0.68037984242184,-0.16474502194779922
53302,0.875,0.4975576123951528,-0.4631866973508648,-0.6670843239132549,-0.3047835470198965,-23.272577433595,1.7692298337927457,5.704649286530072,-1.2340946753545838,3.5869902682240054,-0.9920862221253345,-0.41332176227665324,0.6791128361289318,-0.1696373109356905
53303,0.883,0.5071300033789178,-0.4551097534273153,-0.6588063263463952,-0.318854977025912,-21.15459540827012,3.250192695738144,7.426119835043495,-0.8292290454457043,4.690210623597305,-1.3109018594755826,-0.409770242628884,0.6760094374753505,-0.1878937435300848
53304,0.892,0.5188395607412195,-0.44380571723523227,-0.6495154724613513,-0.334621646927523,-17.74844930031943,4.382462248904987,9.904991887461614,-0.5531170911838147,5.590387497304281,-1.7511536192553359,-0.4094683517393518,0.6595762618315476,-0.19579272532223072
53305,0.900,0.5313238792018035,-0.42997653100131034,-0.639025334168518,-0.35279135543383294,-12.885974135366894,5.440063216288568,12.164146219069377,-0.6294609915199709,6.321792316056279,-2.24244350259358,-0.4178077137919496,0.660774479992901,-0.22394325281302213
53306,0.908,0.543029450345349,-0.41421697483748443,-0.6279800739946806,-0.37307417557336614,-6.910063156720023,5.571119722957019,12.99924863174231,-0.8396724503874401,6.66103861486772,-2.8152861189543685,-0.4008688762796039,0.6462479831351102,-0.23662188058513486
53307,0.917,0.5520184870926292,-0.39530629187577115,-0.6179244280680524,-0.3964567147976723,-1.1310185389048595,4.389584683906833,14.323285010124925,-1.0859167782679446,6.7239283099605185,-4.030532542886488,-0.4082597587873084,0.6289271187050771,-0.2609272664478647
53308,0.925,0.5574309766859357,-0.371999704807903,-0.6085515589708237,-0.4249140218067388,6.146822326672633,5.186439734250296,15.451560837074998,-1.5432397379516234,7.01733572188278,-5.756619735217499,-0.41670789169180394,0.6058514492777848,-0.27419862329036804
53309,0.933,0.5606573569341251,-0.34665118033385384,-0.5973849937084755,-0.45675754682403724,16.16534485253526,7.755695971926454,16.355151002900502,-2.148973292060736,7.459081255651326,-6.560584573482814,-0.42872187065540585,0.5797210572918233,-0.300651583603598
53310,0.942,0.5648111372263178,-0.322368867693963,-0.5836501000160864,-0.48622963007003056,29.958521673114976,11.813554955025824,14.921557370525022,-2.149740820206895,7.609790421796048,-5.772280235048931,-0.4254324612595243,0.5490518725973164,-0.3164507762483073
53311,0.950,0.5734487001135445,-0.3025476668013326,-0.5678734651551939,-0.5070909437406563,47.33583043311971,16.809223917826348,13.93032808350845,-1.4225628928125769,7.309777260737699,-3.3051173495530426,-0.40479639450789245,0.5276433881531435,-0.33392019594885686
53312,0.958,0.58796659738836,-0.28926924629450423,-0.5519192623617356,-0.5157554763042672,68.34272649481154,18.701412877365883,12.652104466313846,-0.22897153384415417,6.413599674273183,-0.021858806745156317,-0.37521906420512935,0.5222238603862123,-0.33877984115385334
53313,0.967,0.6070375370598143,-0.2824276466414668,-0.5374881970971005,-0.5126855673746104,87.94182924233172,17.80261823812045,9.556059829553778,0.9414111804655287,5.170410339406723,2.9238914152160627,-0.3384699942373222,0.5030125425351379,-0.35615233208618763
53314,0.975,0.6246090275633454,-0.2831407867958571,-0.5261110241025618,-0.5028936745046109,97.2502611371591,12.840188672186287,6.733947920115005,0.9947094062639303,3.1251112432868644,4.467602738329349,-0.302748129867356,0.49949273982637393,-0.36660073414193156
53315,0.983,0.6344286336676618,-0.29011761948881654,-0.5202035567337414,-0.49266655580249347,91.82813193448534,7.125278479327844,3.250550446694783,0.2394507188027588,0.5516421023833842,3.9963377805008324,-0.28878567961459395,0.505291585099983,-0.3729018358365498
53316,0.992,0.6338730966130771,-0.2996537759408055,-0.5209209521911895,-0.48688178598381654,77.88411457330699,5.7523177154197755,1.8706159496323924,-0.6584201595413145,-1.7278556170249562,1.9352125087058238,-0.28473235025703203,0.5227522732338015,-0.3596092928852915
53317,1.000,0.6235674852496038,-0.30888431823769097,-0.5268734243384747,-0.4880148194595861,62.47419820634489,5.956213544189469,0.2879141358734887,-1.5858118008984634,-3.18380235227702,-0.6776567113794091,-0.29661233920793434,0.5351696840511928,-0.33759564829825056
53318,1.008,0.6078848297778761,-0.3158034804227991,-0.5361452672117136,-0.4932468427929875,48.70214098684368,5.189372153231562,-2.002941860282128,-1.7812442622117395,-3.766212626545731,-2.465329948973494,-0.32960333384528306,0.5498615016148659,-0.3333373131187472
53319,1.017,0.5922561636103126,-0.3208217599902303,-0.5467814476020861,-0.4973289490272337,39.043518967157304,4.956459141337836,-3.3960374119267818,-1.1914844540683718,-3.821648235882348,-2.64229540924832,-0.36606057669170455,0.5619304768931317,-0.3224871435864983
53320,1.025,0.5796479128381671,-0.32636161335743347,-0.557581162063518,-0.4965880004399893,34.42371988785439,4.617824713288716,-2.8100247714346036,-0.3734098024875098,-3.8865616376628402,-1.548781082051847,-0.39053787691098374,0.567140643677831,-0.3139258556121541
53321,1.033,0.5698038595100442,-0.3342012622187583,-0.5684976607236935,-0.49035037245885243,32.77718322298912,3.2795611690525344,-0.7745702459852594,0.2837250681168102,-4.256654766583916,-0.16221715825736827,-0.40899038119699715,0.571964539228008,-0.2945738984118183
53322,1.042,0.5610633067873194,-0.34409050223169485,-0.5800696215057578,-0.4799259591405591,30.916756570102184,2.3111738055712654,2.2192442472644425,0.7457939585110349,-4.773984003431713,0.7566903500705366,-0.427877344360247,0.5806249714430246,-0.28258628910133576
53323,1.050,0.551531416546573,-0.35542867852070925,-0.592273693169779,-0.4676488248955448,27.415575749210976,1.340575697595381,5.168212504000239,0.8196949007876999,-5.299824514150117,1.0614892295542364,-0.4317061770530787,0.5942699840955378,-0.2597929697581941
53324,1.058,0.540551367339872,-0.36774752830785695,-0.6048249032136914,-0.45470079298699945,22.52158569211768,0.12352603534313938,7.5999265596592265,0.6995641713705419,-5.712053678719326,1.091359568713447,-0.4564221897756746,0.6004497156382138,-0.25197510715670834
53325,1.067,0.5287163934785439,-0.38131801871242166,-0.6171384115991928,-0.44067644003406947,17.278740107787705,-0.13658699377512543,9.31158891647588,0.5952286012989237,-6.046674101520754,1.3411792103172302,-0.4600074475221671,0.6060384507826989,-0.22910351416324518
53326,1.075,0.5169251208811417,-0.3967629404872435,-0.6288746712386792,-0.42412761797880677,12.51448727510086,0.5125940570486213,10.185521394263013,0.6777810833708439,-6.397421914348004,1.9889868542629705,-0.4660354072914543,0.6177327443728502,-0.20606359113289283
53327,1.083,0.505785012905885,-0.4137377313002414,-0.6396741822127485,-0.4047462798207968,7.694983302013266,1.4741399819461394,11.197566977962984,0.8888440358598348,-6.620682106359959,2.7271531586076687,-0.47083074651157575,0.6215986647114582,-0.1846494352382864
53328,1.092,0.49538181142667465,-0.43127475856901276,-0.6492878311119753,-0.3834374210986376,2.540126349673948,2.60138128118647,13.036135243209143,1.0771226040650888,-6.612243858526503,3.231840389968466,-0.4585694878340809,0.6416211803424716,-0.15862499025064145
53329,1.100,0.48503926854428236,-0.4480513990912893,-0.6577096531775249,-0.36249808807697953,-2.5633728030932046,3.722673036875172,14.718696095743537,1.0074063773915558,-6.354717471818947,3.2050625680456375,-0.4486519081490895,0.6544364519407928,-0.14597794498837371
53330,1.108,0.4740214070080737,-0.46331030751415997,-0.665095839119577,-0.343940095707155,-7.983176903213939,3.941487765780207,16.166639366064903,0.6410721627967978,-5.949177084362245,2.744337432185308,-0.44122173039133145,0.6721945816095427,-0.12704790298857246
53331,1.117,0.4620324311511863,-0.4772759059924064,-0.6715230328036461,-0.328314724826417,-13.226916614461715,2.7430004178007135,16.691933842863996,0.13008636156929423,-5.556149909285563,2.2409650784238395,-0.4365114944486859,0.6819404740466141,-0.10342266471940738
53332,1.125,0.44964107054167723,-0.49084907325853516,-0.6766568734560654,-0.31468328612755114,-18.557352045330244,0.7013262198984924,16.65520199319251,-0.2978408290996181,-5.2207168380879105,2.0773394093798605,-0.42665333207371675,0.6872642183861096,-0.08264770393696531
53333,1.133,0.43713635774304094,-0.5048398551730131,-0.6801076727190333,-0.3024931055028197,-24.744702035606895,-1.4734589958232485,16.462101943189555,-0.7158734135688081,-4.916106787377714,2.1872625062827593,-0.41828837553034526,0.6948222158672087,-0.05799834233053272
53334,1.142,0.42455230196586713,-0.5189643074008753,-0.6819778800213551,-0.2921259346600223,-31.211622856382782,-2.850035109995491,15.754990018178207,-1.1529731257402467,-4.55781417907941,2.208046812820869,-0.41524225978717166,0.7074397160297059,-0.040516488508010595
53335,1.150,0.4119820091354997,-0.5317104988871338,-0.6830482813425232,-0.28460466418682906,-37.479933383279324,-1.6894487157407854,14.717844220108027,-1.534476719796652,-4.013365964275663,1.8030420656920585,-0.40517733840025244,0.7142769141928464,-0.014627065052197215
53336,1.158,0.4003472753721764,-0.5405152958932969,-0.6842864726370413,-0.2816332675189713,-42.436037150937594,0.7386464480739987,12.999711797079224,-1.7694736329523644,-3.0214122737275106,0.7575875953930555,-0.39949651291612776,0.7154852236068239,0.009818805921035696
53337,1.167,0.3910037717983241,-0.5438362320187617,-0.686341433528295,-0.2833613237642803,-46.71803714537217,2.3867669586413633,10.927954959475246,-1.669389240338415,-1.7261692058565759,-0.5312814276746,-0.3974010116750856,0.715861474057328,0.023747566881512853
53338,1.175,0.3862919947423118,-0.5409257030483521,-0.6889102315115194,-0.2891030465048696,-49.63184068297266,3.685390833908352,9.672829759709229,-1.1167952832494716,-0.05413660292191352,-1.6777530417667954,-0.4125916436366179,0.7047010487488267,0.03106723017307354
53340,1.192,0.3957899999167161,-0.5197245013235875,-0.6892433628465807,-0.31333736684572305,-48.179880753482934,4.379312632016476,10.446229520622195,-0.4009618930957157,3.1043380010844372,-2.5447295948501343,-0.4415289239136139,0.6855082741720049,0.015167643012782644
53341,1.200,0.41006081504855985,-0.5039207507456637,-0.6845260416582981,-0.330663126491691,-40.70048926282366,3.5727494185706044,13.554010635686101,0.04989584281260938,6.192314907903728,-2.5515571723887187,-0.46260697093017006,0.6740673818404352,-0.007096205815754269
53342,1.208,0.4290151435235632,-0.4859443205071511,-0.6761505966662472,-0.3501778042968718,-33.38623174991142,3.2461589637607697,16.086656010906708,0.18408259460418044,7.749615550609562,-2.293339187416672,-0.46698392712370834,0.662984945832009,-0.042914225088174586
53343,1.217,0.4505051367668016,-0.4667169898851961,-0.664616332879441,-0.37081734475225286,-25.55395344359767,2.9276354082542446,18.447565263206137,0.16161873557261358,8.726552623632259,-2.0220407651097885,-0.467167586624824,0.6545323058368346,-0.08458635535429285
53344,1.225,0.4723409361517199,-0.4463875129723255,-0.6509725241849708,-0.3922588444559881,-17.58090317117316,2.9136156402081324,19.704686311201247,0.004755825476455012,9.192090480420218,-2.01114783341904,-0.47624300491807964,0.6545145117094741,-0.11224240147460575
53345,1.233,0.49235416557278106,-0.4246799783456746,-0.6369902656829867,-0.4140986513628924,-11.36290974648995,2.4612496022027823,20.241735372727256,-0.13162857865839656,9.124948133225717,-2.406468367982863,-0.46764770866082717,0.6324022024592056,-0.1524998680358219
53346,1.242,0.5082651023463056,-0.3998650937107523,-0.6243391631261273,-0.4381496342068066,-5.783553926986514,1.1971233122567706,21.725090795079407,-0.3974019792647088,8.883782853154496,-3.687206854542404,-0.4757432022409749,0.6040584185151748,-0.180612274408106
53347,1.250,0.5178410798685863,-0.3707488432647736,-0.6122301698654199,-0.4685724387167137,3.9139352445782367,-0.023424158819818422,24.398489288912394,-1.3939674672674023,8.951364920473667,-5.819396556913323,-0.47991643789369465,0.5764261622519762,-0.21090018720474812
53348,1.258,0.5238016970518975,-0.34173903294960456,-0.5966220812078595,-0.5028800132630288,22.444754587178736,4.4069102834654625,23.763378261430628,-2.6982661565179313,9.196190347138266,-6.3714389172107495,-0.4862831248628041,0.5514746960062239,-0.24171790470948465
53349,1.267,0.5333903440932694,-0.3190673762871836,-0.5755304156354943,-0.5314654183441404,46.838386583006276,11.649324447833598,18.509353420992714,-3.0193023963784102,9.1385574264965,-3.852838781661419,-0.471983210182115,0.5390851001002112,-0.2607842252359215
53350,1.275,0.5531204836525214,-0.3060911687766057,-0.551194510815542,-0.5445645399838185,71.35196122584053,18.610051425007153,12.885843086368725,-1.7246727504286608,8.492728386469459,0.9961545587348046,-0.43494296244523944,0.5290904422231212,-0.28459021024219083
53351,1.283,0.5823749497925039,-0.3022526815438851,-0.5281299742892323,-0.5390375354378996,93.4775300773017,21.060324543876124,9.750221155673763,0.430356585636621,6.965986724456229,5.800956349854865,-0.3813062040669679,0.5298444414179134,-0.3076444524662174
53352,1.292,0.6129721440956609,-0.30247758002366043,-0.5116842548666966,-0.5205301984201426,109.57434009005871,21.6652311079017,6.990216548020473,2.4741586592848033,4.733849763833062,7.787727442566644,-0.33352140709389105,0.532298076325767,-0.33173424452295264
53353,1.300,0.63147103692743,-0.30400361344329624,-0.5051694884168114,-0.5036168389836789,111.82346892702408,17.81227771692213,5.50008703592049,2.4328313713038496,1.7562695671094672,5.451825947085238,-0.30736287467441725,0.5393314771623421,-0.33649296247331606
53354,1.308,0.6311441339952675,-0.30494460660357875,-0.5085794530805751,-0.5000128087669518,100.77683007146226,13.964381889445193,0.5266553361611167,0.6957988467517624,-0.9353671517137369,0.34976017929015585,-0.2983264453574938,0.5378620636150467,-0.3369012681379788
53355,1.317,0.6198803792042056,-0.3051949041287556,-0.5189208358879908,-0.5033145657069739,84.2732271564686,11.347213490954447,-3.766190909451811,-0.03327837066558583,-2.701716972213478,-2.611250762851857,-0.3212930156096064,0.5361763353576746,-0.33461157287354676
53356,1.325,0.6065498568836607,-0.30629478879364963,-0.5328384039273639,-0.5043451286295969,69.06633994544394,9.258835006102359,-5.064384704014042,0.4038996093033141,-3.7618281434302596,-2.6933288254241337,-0.35154783204825846,0.5356648970219482,-0.3372694694507791
53357,1.333,0.5950564193438944,-0.30934544433165223,-0.5480402581662089,-0.49986511110297654,56.75430484888698,6.380382961290853,-4.054374195167398,1.121932388560313,-4.357593184405629,-1.5239559386145434,-0.3710994163255902,0.5437489894413547,-0.3345592562541023
53358,1.342,0.5859742422162516,-0.3152195959212694,-0.5630935668602854,-0.49009838682338386,47.46156810652545,3.349417743636249,-0.6104663922951171,1.5875565489820187,-4.772664905138763,-0.10493200962565633,-0.3900023901227335,0.5531626717042716,-0.3203814925986646
53359,1.350,0.5777260856968409,-0.32399911576332413,-0.577919597512314,-0.4767243246376207,41.97483777160645,1.353525342601684,3.114954517268236,1.7079361980680838,-5.240441540745499,0.904363920257727,-0.41049979971191897,0.5665782113379104,-0.32187950347029687
53360,1.358,0.568569492126126,-0.3348461894909411,-0.5931768901530095,-0.46124607206483753,37.295577535963076,0.535714966332569,6.448086575735271,1.6974277873224686,-5.8426890127782,1.340672468629871,-0.42455797488594066,0.5701814587808105,-0.30248383265293455
53361,1.367,0.557765567650595,-0.34756243087562294,-0.6089525575380279,-0.4441561784498028,31.715163165451553,0.5367225582065567,9.352131736361775,1.5966185991510922,-6.475205998846308,1.5950140059831954,-0.4449293225086359,0.5795997768622904,-0.287828530927145
53362,1.375,0.5460970344982976,-0.3620175463998363,-0.6245614769728518,-0.42502268938528215,25.755226119842614,0.6189412343094766,11.402376301264255,1.578067834547816,-6.951403761398463,2.042692802853825,-0.45456446235601583,0.5841424562425072,-0.27231597669579477
53363,1.383,0.5347524075159736,-0.3787244557664283,-0.6390506892077208,-0.4027677567574525,19.96124227581017,1.2250261660469945,13.472789374438621,1.6695175651486136,-7.256325602672991,2.91287233885118,-0.4480875194452187,0.603335230819329,-0.2565805808124896
53364,1.392,0.5238153947839124,-0.39758380768827883,-0.6517692485568902,-0.3778113215443006,15.044561305311955,1.7870836419701939,15.134693667818228,1.6816567893138994,-7.437931701277233,3.7920629729915016,-0.45701553501628095,0.6293960855268436,-0.23760479660616252
53365,1.400,0.5127470849107768,-0.41789872740638767,-0.6627409992413942,-0.3510348251557689,10.043597201753949,2.975498071801551,16.923950221775872,1.6157002677766659,-7.5455035354531415,4.399470869977625,-0.4516081144804045,0.6460239655502971,-0.20915664202828085
53367,1.417,0.48834090235608185,-0.45869393654764146,-0.6796056539551864,-0.29876276671068,1.2857005145609028,5.809122878532748,19.953958128460684,1.1784907794056512,-7.366896650653533,4.504387729560998,-0.4321471961082035,0.6742650123390473,-0.16606652847045103
53368,1.425,0.47434231344877303,-0.47567314897144464,-0.6864447473013336,-0.27843856399942996,-7.2026140687522675,8.624813122362799,21.909585816088903,0.30837788863667726,-6.575300997184838,3.3201602140441917,-0.413754624211519,0.6857059046706172,-0.14382231120764066
53369,1.433,0.459225710093348,-0.489690093108083,-0.6931903124867982,-0.2623024029160103,-11.43611212613664,8.509043782576596,21.43724847528799,-0.18457705831870977,-6.058906376277905,2.3019639877513436,-0.40856669215655905,0.697418741535021,-0.11874730775034822
53370,1.442,0.442998697468225,-0.5017040909350203,-0.7000875710241773,-0.24884242419247735,-15.839137192341681,6.498995033135235,21.670708696399938,-0.5356590860143721,-5.819653342065832,1.5910340741825617,-0.40213719957154537,0.701535745222929,-0.09652100476893054
53371,1.450,0.42576955718234855,-0.5124250704551138,-0.7070623276761027,-0.2370731872799416,-21.932483675691138,2.999382366523802,22.26468173195779,-0.8013268854074493,-5.70423048817933,1.1274855489567814,-0.4081818477389289,0.704218104002765,-0.07119821349964954
53372,1.458,0.40754888904370173,-0.5223797329324107,-0.7136689244067566,-0.22737630482706742,-29.604297440716046,-0.3795525373483523,22.63167067836138,-1.2205373836617088,-5.542397859866887,0.7799198400057763,-0.4027642787143804,0.7127757990625011,-0.044138308550575135
53373,1.467,0.38850457283129375,-0.5307797943967836,-0.7201036766738067,-0.2208793824469561,-37.6210871748256,-2.069682737836137,22.724030431019717,-1.7332786539429013,-5.165543474978838,0.18363569131219912,-0.4078629660170696,0.7120797475997479,-0.014625835991779726
53374,1.475,0.3695996645811815,-0.5362697855132811,-0.7268290938928992,-0.21801438796062336,-45.203834909596395,-1.6752326767485952,20.459395982693874,-2.0639995630075223,-4.552406094028483,-0.679904001825034,-0.4129311286095422,0.7140297175152177,0.010711047570722582
53375,1.483,0.35386216041690144,-0.5383442329011591,-0.7330966529374295,-0.21802833710112995,-51.82806182398468,0.5328685414688298,15.556754179434117,-1.8828719798721913,-3.394835287247115,-1.296381219538961,-0.4208724199201719,0.7068727183398281,0.02830033607784156
53376,1.492,0.34416580716976775,-0.537401038494547,-0.737551829740697,-0.22083323899792628,-55.10270826618422,3.3506438105951335,11.524198843640535,-1.435160043668746,-1.6618735802691518,-1.5024241592282468,-0.430069209737606,0.7122126880442945,0.05064495290229578
53377,1.500,0.34232403463715905,-0.5337345626611223,-0.73893815752795,-0.22784220697640034,-55.318221199015326,5.220399640956785,10.38532624367732,-1.1024285005497048,0.6731629269966483,-1.4983254116275584,-0.4344649621544233,0.6929264479493185,0.05079593846261368
53378,1.508,0.348307752813679,-0.5270856281115633,-0.7369754158725945,-0.24027002802584502,-52.166352981181596,5.277901688634515,10.272596439223957,-1.0011377452041066,3.197681005129372,-1.593598538551028,-0.44810625213926253,0.6911781361413444,0.046562128202182564
53379,1.517,0.3608929773054181,-0.5173258933698981,-0.7320957121576105,-0.257227617531845,-45.62576326705099,4.480946689985043,11.112881584565503,-0.8756321707978062,5.360343590758119,-1.7520709926063636,-0.4538076232859824,0.676812324170873,0.02492677506992887
53380,1.525,0.378322761211855,-0.5045191410674046,-0.7249395564928707,-0.2771190431521566,-38.346770440219935,3.770096049459406,12.878164941446501,-0.6683543679831728,6.973025783212854,-1.9464569995254253,-0.4759243629733516,0.6698468918503548,0.01115837468738726
53381,1.533,0.39848985681616317,-0.4887264150118796,-0.7162082171146196,-0.2989951755827649,-31.027114804957925,3.527118113263747,15.485502014667059,-0.5176944493438689,8.025368753078338,-2.264426956874993,-0.4783594962079391,0.6509662154110454,-0.023106457376172222
53382,1.542,0.4195224008225139,-0.4696057938681746,-0.7066586939534234,-0.322652822447903,-23.68549221898862,3.1357742160643416,17.78618158237779,-0.46756245409568004,8.717714699044857,-2.842013075024733,-0.49248157580503377,0.6486469487729162,-0.06176466074901658
53383,1.550,0.44018991248275374,-0.4476904774793426,-0.6962304885403141,-0.3479499736307792,-17.415927973082024,2.560985960884748,19.604663365986998,-0.5771820659048884,9.139694481885904,-3.406609775906494,-0.499811815550827,0.6307590161843992,-0.09436559626794855
53384,1.558,0.45999462186021933,-0.42452948392136314,-0.6842243248961897,-0.3741881055852649,-11.706974125703024,1.6285791686939977,20.27460472866381,-0.8294054432316204,9.37898612340259,-3.6107770623005964,-0.5097349341632134,0.6098209968557766,-0.13965275030932206
53385,1.567,0.47903544541475923,-0.40020958176612775,-0.6707146150457107,-0.4006235612928287,-6.769734433613339,-0.057663895711194235,21.00818740025428,-0.9471979065257182,9.535642339386303,-3.737942580296654,-0.5216785001228679,0.5953184282376934,-0.17573776813900055
53386,1.575,0.49640569240943494,-0.3746846791476041,-0.6554477727834392,-0.42846353043029956,0.6819476659784973,-0.39040946863418774,23.573068194409917,-1.367242364415269,9.727855105060254,-4.078086258263075,-0.517266865868843,0.5808181775288916,-0.2114590887879705
53387,1.583,0.5115650413548505,-0.34922997654128707,-0.6379936656678054,-0.4574972289712142,13.32384766865997,1.7135896591887874,24.034900406732266,-1.988108999227952,9.737550029374184,-4.237879303769456,-0.5086861514643337,0.5543300783666787,-0.24972184930845137
53388,1.592,0.5249328171571433,-0.3239206890363195,-0.6197267256114893,-0.4852419089985566,28.1979285728219,5.937090542391009,23.32006858308851,-2.0470258194910373,9.436590976746102,-4.185936782836404,-0.5011296495425246,0.5352284513987294,-0.2814699603395763
53389,1.600,0.5395811058341974,-0.3004528718485445,-0.6001843573784502,-0.5082903099439573,44.996179690148765,13.991608623570745,21.271062647137448,-1.6217519384749348,9.198876921763155,-3.079246804277682,-0.48192353099207424,0.5274471854797091,-0.3037182264910108
53390,1.608,0.5613035203081853,-0.2846376264440346,-0.577714280141705,-0.5197749418953331,67.87975859302979,17.88658202611485,20.86354732489047,-0.7649827912444056,8.787061432994834,0.5882308871922739,-0.43503215636519504,0.5188060456858368,-0.33918463980032676
53391,1.617,0.5902668866539966,-0.2775899280990954,-0.5548672222249247,-0.5163828037784892,95.86459812136647,17.703298713324653,20.285473590968454,0.592824135358129,7.699574669054885,4.715531576093664,-0.3752669931623492,0.5205041126365088,-0.3656212595987002
53392,1.625,0.616219628987223,-0.27625762209327714,-0.5371304989871251,-0.5054165827751004,115.64110453594633,13.260459242244972,16.563842802238252,1.2347165675041167,5.3417220204936795,5.810409135176264,-0.3230998171174141,0.5295654726886287,-0.3880326474636964
53393,1.633,0.6282122838839641,-0.27812945052227106,-0.5285833027094843,-0.49859104206374105,114.29441350473311,10.578450144871162,10.165259287857742,0.3957927414739751,2.100608044634073,3.281299780030396,-0.29744535472986133,0.5146457508684711,-0.3906333437397587
53394,1.642,0.6262690047176445,-0.2827210421630863,-0.5289951025691898,-0.4980161920118683,98.42561162743877,11.761225114961801,3.9912638128864377,-0.6850021944604037,-0.9032468801417752,0.39541219283397394,-0.3053231511926038,0.5222995317770058,-0.3817297523704061
53395,1.650,0.6159193879687708,-0.2878627853698409,-0.5355114329828394,-0.5010048198051171,79.70918774680744,12.510523655327724,-0.04754158400727087,-1.0760018637120314,-2.690016887733276,-1.5017026260500639,-0.31817853581936806,0.5254376990698107,-0.3598792914338195
53396,1.658,0.6018737126785553,-0.2929532825885087,-0.5461283274881392,-0.5036568853119723,65.12186132526442,11.882751835201573,-3.170999105755291,-0.7922319086192153,-3.779880927049973,-2.201849911856125,-0.3551045178531113,0.5360163996172472,-0.35170413827717606
53397,1.667,0.5878090723001939,-0.2987857374555506,-0.5589087852363976,-0.5028205916629741,52.41529125531944,10.718161640749083,-3.8336704884005126,-0.17896600961116402,-4.436053793229225,-1.7627413525898965,-0.3840009283581129,0.5454092206966298,-0.3397966547082678
53398,1.675,0.5764491813964777,-0.30600172855194324,-0.5721391765627143,-0.49671525649278464,42.83956231415869,10.296119484567603,-2.9111399170391445,0.5888099981231096,-4.686726936590946,-0.5506895683918981,-0.4131636676820321,0.5435998941004433,-0.32485485766641237
53399,1.683,0.567876455121684,-0.3150423784588183,-0.5856691783432738,-0.4850322103037649,37.802353061809846,9.737738077628004,-0.6385715379388212,1.353506288571698,-4.991634805553655,0.77666413586987,-0.43542808923326054,0.5431742184081345,-0.3184213048998967
53400,1.692,0.5603444824962265,-0.3253612781815202,-0.6000555093938263,-0.46913482629436,33.98646872827279,8.84736616450052,2.5970127649243846,1.9543393783472567,-5.429030335768451,1.5758488870708915,-0.4406483712501584,0.559409622616113,-0.3056732370451498
53401,1.700,0.5528709122508138,-0.33645579092183364,-0.615238469300589,-0.4501254058979399,30.417480983642413,8.238265495545047,6.098884452312368,2.397727385574543,-5.8710074834673565,2.04601274605052,-0.44650533065121617,0.5662429341075825,-0.3060250923765269
53402,1.708,0.5451772377827152,-0.3484393609803793,-0.6308089957245037,-0.42831273858739916,26.611928121783077,7.2112405277232385,9.249537132955009,2.719618090300523,-6.274277914366864,2.48570983303281,-0.4634715133734819,0.5725037924751133,-0.28960581131619806
53404,1.725,0.5285894213393173,-0.37529276229482894,-0.6615133264989583,-0.37702610663131236,20.168918259822252,6.120229545817056,13.289003797451075,3.0464564663640745,-6.823358272543035,3.1589290467505857,-0.47248328688156516,0.6003824962690487,-0.25917246640918884
53405,1.733,0.5194192067516259,-0.3900343056298964,-0.6758145472855193,-0.3483556024618893,12.274254225363832,4.982863918661514,16.90041909335786,3.1883234896188517,-7.219876515668544,3.758773399538589,-0.46792620395375395,0.60952191608985,-0.2479946551594696
53406,1.742,0.509445789169804,-0.4059240682608372,-0.6881843782380463,-0.3195197963395088,5.695023687734936,3.3144731660173097,19.22354388275241,2.8383586250597226,-7.226997716285812,4.083769259863185,-0.4645451932951673,0.6183592585571567,-0.24292652696526526
53407,1.750,0.49864605538765433,-0.4228977516114957,-0.6982168238368043,-0.29155251677788613,0.49885276285544417,3.804348600350535,19.90794779992242,2.3042184701376773,-7.081488170222764,4.3260145622218875,-0.4667020557066883,0.639376835948244,-0.21506366515837647
53408,1.758,0.4872910495655083,-0.4401039352535052,-0.7059373657386127,-0.26553416887804154,-4.059033703532891,6.053477981468277,19.835470368333638,1.7315776777361593,-6.713085221395827,4.335376462400423,-0.45500243618385455,0.6511205547802,-0.21240390273295023
53409,1.767,0.47524063694216434,-0.45583632740971636,-0.7123685265703451,-0.24267398287501665,-8.56936803393874,7.909046130014581,19.351801579934524,1.2093115779259263,-6.255015312361466,3.817212757236911,-0.43690391656264377,0.6633587374360198,-0.18333297694041586
53410,1.775,0.46255285363537796,-0.4686814437857342,-0.7185146309078742,-0.22387337272666039,-12.94513446346861,7.5879222548549015,18.084058908905497,0.7510603782370427,-5.702136052524992,2.8617654973322004,-0.437995554410475,0.6764482714764566,-0.16759496019497025
53411,1.783,0.4495117740503956,-0.47923139600188913,-0.7244192340538959,-0.2085502515196611,-17.85851523533087,3.9078080391999146,16.78750101837401,0.3481024634781586,-5.2248275408663645,2.0981055111111617,-0.4291225973179385,0.6854455496841909,-0.145641290381162
53412,1.792,0.43636436242189924,-0.4892215986491527,-0.7296496458692697,-0.19457585900143573,-22.81762436872494,-1.0155077963546453,15.502718196663256,0.1264235693048249,-4.9752229912007,1.9287277473493099,-0.41948715375649753,0.6907414791123078,-0.12779759146918412
53413,1.800,0.42347877256601807,-0.49915209390651777,-0.7339657907321354,-0.18112739817506646,-28.73710326067637,-4.3634497702138955,14.601599730008175,0.028854020130803747,-4.780672249611187,1.9876794229080519,-0.4107888157993886,0.6984277107507846,-0.11535491795010282
53414,1.808,0.4110098828134278,-0.5082316067790528,-0.7376015376121566,-0.16945643042580957,-34.50110563533364,-5.376517439632687,13.342790060166575,-0.1789596910177532,-4.374841001872344,1.7597053032265604,-0.40948928496439807,0.7086525907936403,-0.09273579339896655
53415,1.817,0.4000475395880693,-0.5154013165245558,-0.7405896069389301,-0.16078085423435312,-39.23365502252525,-5.157808007600019,11.401339436254563,-0.36871985271414476,-3.6053920982474286,1.275210148666204,-0.41492261174109407,0.7099543657257716,-0.08424233731770968
53416,1.825,0.39161578124733126,-0.5201788307278555,-0.742980446109897,-0.15501974273937327,-43.39675207803146,-3.7598252955195752,10.303398147328176,-0.3692702437742708,-2.631392115102961,0.750703516654694,-0.4052588855676299,0.7113071346620976,-0.07026752242503685
53417,1.833,0.3866314405411458,-0.5220578991513999,-0.7446679528229168,-0.15310558173114416,-46.22395153849186,-1.1105282196170727,9.47705455115338,-0.3865112217729856,-1.3603023711396216,0.09821204009843701,-0.40087194904664014,0.706433813870116,-0.06921254870354666
53418,1.842,0.3855217184039504,-0.5199249453482772,-0.7457699105005268,-0.15772855301274152,-47.70279411965563,1.3456694341134259,8.925025079026348,-0.7236165933402666,0.3675414236064063,-0.9885992646362142,-0.41432397026688805,0.7113488570291655,-0.0659393400993835
53419,1.850,0.3889827341925374,-0.5126912633128488,-0.7462367924016873,-0.17020796305935393,-46.93026849170284,2.017290170182011,8.299867647414342,-1.1251637500391976,2.432985313740893,-2.3579899602342174,-0.41773909179450935,0.6996259993807435,-0.0663413152528336
53420,1.858,0.3972139737482163,-0.5006128432571422,-0.7455062396554141,-0.18928361487460013,-43.19546054701911,1.8093750870404632,8.659849103828702,-1.3211840769860883,4.417701968612076,-3.4751650899724633,-0.432079876247193,0.6834299996305517,-0.07508206545559595
53421,1.867,0.40966174511632614,-0.4850394733234834,-0.7427155466761121,-0.2128087888972834,-37.75019838927326,1.9062175597945505,10.241704500684328,-1.379067711656309,6.075649191860215,-4.075114422778385,-0.45519660639899895,0.6728327558088629,-0.08564923659784401
53422,1.875,0.4248754663200298,-0.4664656888094425,-0.7378544828930498,-0.23971099548727456,-31.151944891756646,2.878815978055759,12.86972542470838,-1.4700286022780784,7.316290421317897,-4.542321446173556,-0.4814194342357924,0.6597061352199209,-0.10549310795303626
53423,1.883,0.44085186232645385,-0.44513244778031313,-0.7314781882988906,-0.26915868824798744,-24.635208348575183,3.741076390833135,15.573749485069321,-1.648519131515016,8.064959693426259,-5.074538125973296,-0.4943638548092421,0.629121144406442,-0.13825868632760496
53424,1.892,0.45607388031260254,-0.4217030286710111,-0.723864675861944,-0.30030501551853145,-18.5467812541871,4.636550870727594,17.6156181422393,-1.8856721317260916,8.3752469033072,-5.5289610140207595,-0.5088608192801111,0.6201354557451154,-0.15903278846788013
53425,1.900,0.4695922160544529,-0.3975104904892613,-0.7149382875951453,-0.3321623180051833,-13.290064293703452,5.051477973045154,18.96911419283205,-2.197090958737135,8.360238600828271,-5.731835346165941,-0.527974199268288,0.595739468111439,-0.18286837557444685
53426,1.908,0.4815949548742601,-0.3738533754632231,-0.7040547638048662,-0.3641522245683643,-9.272958711167744,4.726517908741428,19.946617267865015,-2.5770443991178196,8.280943451689465,-5.582350420162318,-0.5372900753076822,0.57154588773215,-0.21102910879063633
53427,1.917,0.4938932368959118,-0.3525317784471124,-0.6896223033941458,-0.3952365043802865,-5.957199308443504,5.391510999125384,19.563447135392515,-2.9733172397131473,8.452289749899109,-4.736991984448641,-0.5396101422697047,0.5445316936316293,-0.22763648626049984
53428,1.925,0.5083775009625446,-0.33389460713792757,-0.6711473407880043,-0.4238253824306396,-1.4498001158940972,6.760160590093154,19.924831659075082,-3.0657806202772475,8.81057667153838,-3.4398208100680825,-0.5342784182237645,0.5396266712565979,-0.2556291250511317
53429,1.933,0.5241968180974793,-0.3152204388895836,-0.6499195531850388,-0.45106357111885775,6.419375857169343,10.473251030421913,21.584134999067462,-3.0132356101332998,9.252624923421328,-2.922091569177402,-0.527961776945178,0.526897911448586,-0.284761069468191
53430,1.942,0.537685031104181,-0.294371611230633,-0.6280529320494082,-0.4793638246385709,20.043290887592,16.34783345224932,22.134646710357554,-3.1556170843969222,9.291472718063343,-3.5963769187086916,-0.5143211973329216,0.512948503533297,-0.3138278840147039
53431,1.950,0.5467179726113891,-0.2708883753355935,-0.6072506181181221,-0.5088866605904444,37.542207629168324,21.667033327340743,20.30450125396979,-3.199094125118598,8.87806288879309,-4.7422264497205315,-0.4956348036220794,0.48909408705600727,-0.3317766489412185
53432,1.958,0.5559673998328829,-0.2500294444514857,-0.5863948310059695,-0.5334103761643805,55.385249411528676,26.316351541616193,17.686237182141475,-2.800766943659897,8.265060613634327,-3.682821349896141,-0.45881192087666256,0.47906466053969404,-0.3592462651136197
53433,1.967,0.5734574808336159,-0.23763692693398333,-0.564601780819018,-0.5439669454381669,73.95234923781682,30.40530396949133,16.91658721615505,-1.557000187283188,7.580073175319913,0.47200628368591835,-0.4311186398010196,0.46525432718129855,-0.37356218185476564
53434,1.975,0.5987433559550273,-0.23371525188754563,-0.544436831276774,-0.5389546469640637,93.44527556975807,31.560337298359237,16.78819401112375,0.07263087619996485,6.386060753035099,4.662610447033234,-0.3853208062380636,0.46799613198695716,-0.3930302303886346
53435,1.983,0.6187784831482347,-0.23399084802053535,-0.5309803948702099,-0.5295481962001918,104.49855436628742,25.478695674143577,14.06409025540404,0.6190053716274062,3.938600308863707,4.7623584662704825,-0.34407641989161575,0.4680146752612096,-0.39077563336311577
53436,1.992,0.6234822077389146,-0.2342885839518731,-0.526961615540049,-0.5279112158405588,98.76640373489893,18.872295193975585,9.470380714923433,-0.06368727315946347,1.0571274989847657,1.1068410046568111,-0.33941122145567965,0.4662709992717985,-0.39438734584193585
53437,2.000,0.6162557664017538,-0.23450382520122195,-0.5308582518154449,-0.5323779698879659,82.24659394438662,16.296107608400973,5.084743284860871,-0.5122434587657078,-1.2561254025967599,-1.7916085749508321,-0.3470464312065012,0.47734491278999036,-0.3852702965491247
53438,2.008,0.6042717300861203,-0.23482090280253753,-0.539190516093729,-0.5375764198514543,65.29757392643111,13.499202370961692,2.575462451720627,-0.3285688385831696,-2.4800416528637483,-2.7583495851143662,-0.37437741584817136,0.47073718764572386,-0.3871164613934361
53439,2.017,0.5919794575268311,-0.23658664946570476,-0.5500643598359319,-0.5394592470234587,53.397285582953444,10.285249161808888,0.12834503330161245,0.2034555966649023,-3.2632640930702705,-2.2850978273414126,-0.39807123791289467,0.4661149502030422,-0.38553667531985963
53440,2.025,0.5829241329403644,-0.24143524219047174,-0.5619548574666778,-0.5348973894437685,44.62507363062648,7.3711057023864415,-0.18502618799788217,0.9450418450530901,-3.7649903310396793,-0.6103351931070305,-0.4145232021145674,0.48625874626358856,-0.37266366556263913
53441,2.033,0.5776234181240401,-0.250385267870719,-0.5736533962457587,-0.5240039937287843,39.60990201923848,6.139068404739009,1.9551120717348667,1.4304194386677072,-4.136909341519164,1.3124745578018446,-0.4313523936730078,0.4862378850800545,-0.37498391690738153
53442,2.042,0.5734969086372139,-0.2624313110685428,-0.5852312856015947,-0.509642467919924,37.33234240873293,5.651618967988847,4.18108078095491,1.5437164871516085,-4.573099430914858,2.372086751873836,-0.44310707039453734,0.5041080235412108,-0.3701121997082887
53443,2.050,0.5679951233150623,-0.27623204776032795,-0.5979249345969431,-0.49352119333184213,35.256918169706985,5.794089927486585,6.300027076350107,1.5991972801873517,-5.240176593194237,2.611723816534053,-0.4598559050694494,0.5101595209265095,-0.35002696963447866
53444,2.058,0.5604995215537049,-0.29088485719078305,-0.6120122600067258,-0.47609587248434143,31.305476781754223,6.325277618059051,8.30974489838102,1.7048000955612885,-5.911185195816751,2.5800232131624328,-0.47142732766855483,0.5251789128457741,-0.3368254682284996
53445,2.067,0.5514419066446717,-0.3061420416083345,-0.6268433901338659,-0.45744533903129037,26.083914702831656,6.348338653104824,10.204576108963224,1.7779235364792094,-6.388877025898234,2.593588633790843,-0.4888837495869458,0.5287566632865771,-0.3201401371243589
53446,2.075,0.5416743762281414,-0.3225063107559828,-0.6412764474972481,-0.43742778552091177,20.77136779710482,6.340888507909383,11.973530132424685,1.7450952921592402,-6.674709309897379,2.89460440616589,-0.5007559054001143,0.5511741169465132,-0.29919801667286433
53447,2.083,0.5318447484302284,-0.3406761392887369,-0.6544101617938057,-0.4157261981491107,15.682177346366837,6.192847061926384,13.048835693899079,1.6313768480581188,-6.836787280867354,3.4806657141500255,-0.5006234729652508,0.5618177189538333,-0.2839161442120706
53448,2.092,0.522176014146873,-0.36054273549042976,-0.6658050778699958,-0.3924853429330737,11.120154788930131,6.436305859006053,13.987454811308966,1.5020542008409403,-6.894946511556915,4.1067592277685225,-0.4998298361340724,0.5752394631684248,-0.2588894900665033
53449,2.100,0.5123833133138356,-0.3812438963672818,-0.6753294158486896,-0.3688449698853128,6.538862522639249,6.779407589361793,14.851132266978285,1.2759776139140646,-6.795872876914744,4.439810090166088,-0.4953327690362852,0.5939787471415593,-0.23950188951250745
53450,2.108,0.5019753168730386,-0.4015841989057282,-0.6833436732895964,-0.3461102954471866,1.9292355396185088,7.287597561886404,15.670217398597352,0.9836954819716525,-6.595009168157808,4.360871328458807,-0.4867495155756766,0.6149986424419283,-0.2113163783441566
53451,2.117,0.49072575601401647,-0.42055401363036626,-0.6903034216345357,-0.32527486850894954,-2.5548785358752246,7.441438170508941,16.05731310676906,0.6651072357776159,-6.307612016999887,3.942227241678717,-0.4746952870158127,0.6296016303060102,-0.19036931047229352
53453,2.133,0.465831621138227,-0.4533486439258084,-0.7027126728201312,-0.28925906598817114,-8.405323549013412,6.252272854578249,15.585968567983185,0.314568939904667,-5.922933555951281,3.174625898380578,-0.46645179091363953,0.6614883960516206,-0.14910492195308794
53454,2.142,0.4532775078167192,-0.46799824208557206,-0.7081553659075498,-0.27209028657529005,-13.620547811068615,4.597869233470567,14.063166810676982,0.3017191603461255,-5.647849903997966,2.8636758818383914,-0.4485513275409621,0.6690278502584672,-0.12633894231116302
53455,2.150,0.44118171641555876,-0.4818927766277436,-0.7130591392610631,-0.2543318872082251,-17.557386148405627,3.459328600636554,13.774945331178278,0.5003335790246318,-5.518369343567878,2.8888991074665364,-0.4423507941613343,0.6860651806092586,-0.10619025471550082
53456,2.158,0.4287808387757207,-0.4945440031513877,-0.7179008407403303,-0.23704768319921946,-21.83894707588437,1.664940840785327,13.66141214945148,0.5099493497102552,-5.438250730251698,2.6163115981542058,-0.43610477597211067,0.6898592457601382,-0.09226360392542791
53457,2.167,0.4155570906577477,-0.5051494985044094,-0.723020457477243,-0.22221095075223188,-27.09392681151211,-0.7438306671592275,13.092589590520314,0.21169282228919964,-5.1875451115514135,1.9353643973117693,-0.4235211315748036,0.7058736994394769,-0.07694170502886007
53458,2.175,0.40272086099996224,-0.5138859366712409,-0.7276406624765702,-0.2104191495981982,-32.464041814405924,-2.797963997790955,11.646488270625543,-0.1140863480757555,-4.603397116831117,1.3972535836075584,-0.41580679039234303,0.7089307399074273,-0.06348563876709101
53459,2.183,0.39182281692123,-0.5213967954160467,-0.7307080102530824,-0.20170787198761225,-36.81313272910424,-3.228588454239104,10.1726328479274,-0.3744513759312876,-3.6637811987078366,1.1847685872816835,-0.4110787930966576,0.7174328051444059,-0.042290042246738296
53460,2.192,0.38385700945655976,-0.5271011757516184,-0.7319739939173361,-0.19756573346871642,-39.96234091048253,-1.5267836082017134,9.017791204880442,-0.729815478254001,-2.3215726548821145,0.8205327122171605,-0.4146274721262317,0.7100339942568425,-0.02442218841343427
53461,2.200,0.3788505351164597,-0.5296144706502617,-0.7320665938560202,-0.20014816181983813,-42.030029121130156,0.9201682980614304,7.899343349403377,-1.3040137191570733,-0.6789589793913745,-0.05068785019234971,-0.40828688669121765,0.7134610805943442,-0.023431743999474983
53462,2.208,0.37718137187904804,-0.527451414327391,-0.7316742680337646,-0.2101951087174238,-41.8249945312988,2.0059517104448186,6.0539869230113545,-1.7999464645280878,1.1369881229940317,-1.3096861762138645,-0.42453370157092146,0.7119260164402734,-0.0052240760706960465
53463,2.217,0.3791815466152344,-0.5209711405543995,-0.7306237204482899,-0.2258304774254934,-39.833684660332594,1.2426751306476118,4.855696832316324,-1.9653332116487252,2.775586038422359,-2.2872683715553754,-0.42983977353761804,0.695239439537889,-0.014138280228962654
53464,2.225,0.3845891351288458,-0.5110092158280329,-0.7287033044241987,-0.24485153175122082,-36.69636433307725,0.07114345082147633,5.266788755188982,-1.8690427466595798,4.074922520373313,-2.902706206872524,-0.4496151441070973,0.6879155508942273,-0.014213304519741671
53465,2.233,0.39283298625853363,-0.49836522480269546,-0.7255064249356954,-0.2663733751552282,-33.27348512027776,-0.30727894758378754,6.672178412415347,-1.7876855604454378,5.152308852276007,-3.2681928047445163,-0.4636988955479573,0.677562436693994,-0.024716760060986127
53466,2.242,0.4032354829623626,-0.48346576319192724,-0.7207765432679882,-0.29007443144132566,-29.61474651447631,-0.1458004036634615,8.87728508789598,-1.7978017115918403,6.088156329309143,-3.538048501042722,-0.4855579359270805,0.6603250169980968,-0.04033901095550945
53467,2.250,0.41511444466952063,-0.46638289836646096,-0.7145064723139127,-0.31566990822620994,-25.919751261603103,0.5461051696202754,10.968041462493622,-1.8508211934659924,6.859716012194568,-3.8082576507274704,-0.4995635543586703,0.6442549334960006,-0.061530572344178955
53468,2.258,0.4278106340241273,-0.4474810143834283,-0.706768103048275,-0.34237063497881365,-22.361049694446468,1.374360635212914,13.035514760765771,-1.8820221397016565,7.418367286984472,-4.00011309126985,-0.5196996163837666,0.6235811558254757,-0.07906086534970554
53469,2.267,0.44123318654227733,-0.42693363688701047,-0.6976343384923003,-0.3692523182656938,-19.13583390600747,2.7538148659254915,14.978438848708256,-1.7794348275481968,7.8319907453876105,-4.083747034682346,-0.5329409806832005,0.6035632760130254,-0.10460420289141195
53470,2.275,0.4550935231194022,-0.4051203818998858,-0.6869915008145875,-0.3959924736564847,-15.423764973089531,4.365588254548483,16.862747341824992,-1.7121167284936172,8.170329177831288,-4.08516365409738,-0.5461624431960318,0.5874259731417643,-0.13286998007482273
53471,2.283,0.4694498233457758,-0.38264119989464884,-0.6742749023831229,-0.42255879060792656,-11.507643773706254,5.0684645237911985,18.4181140506212,-1.7569498329583182,8.516344198056276,-3.9230640621608486,-0.5444500695416836,0.5800240247294213,-0.1667251650742028
53472,2.292,0.48507417527563446,-0.36077880890056063,-0.6585720609136381,-0.4481345067197117,-6.731118756342481,6.319754429751029,19.158788291722267,-1.848997179801365,8.903203831494414,-3.3033910152008055,-0.5464456781267512,0.5531496543326859,-0.19431861513863807
53473,2.300,0.502916836291826,-0.3399204333225641,-0.6395747922073174,-0.47167026613619406,-1.3087079380072266,8.73293762442987,20.582657837204458,-1.7980570616921405,9.33976012320178,-2.3801922043859998,-0.5371407897452974,0.5366824591965519,-0.2314504378442823
53474,2.308,0.5209275604834038,-0.31866252618190316,-0.6186197024249631,-0.4943665997089893,7.447572996248045,11.214666429149869,23.512228767010104,-1.8273852244734794,9.577192644957838,-2.156380614415293,-0.5128821634100614,0.5328311954605252,-0.2768941080076001
53475,2.317,0.5350783574199985,-0.2951943425000956,-0.5977180038701887,-0.5189264296854517,20.04074381571086,12.06591487605721,26.499946425000253,-2.124111196795664,9.41144725408498,-3.1819314285150653,-0.4951344904698572,0.5138106953174304,-0.30002295370194876
53476,2.325,0.5443770386520601,-0.2694639879591731,-0.5778619938836754,-0.5450856033746767,34.261554963321686,14.430388742748395,28.31028051654983,-2.284478432693733,8.983339187667445,-4.389599554891716,-0.48102202605819255,0.4952436857780232,-0.3268450518862345
53477,2.333,0.5544849218444234,-0.24647529200893895,-0.5561908460068029,-0.5678451766939024,50.78682378359662,21.724908079961104,29.80518975944176,-2.349570918778149,8.748099934009533,-3.347179472188739,-0.43913417296821017,0.4684481242968608,-0.3458170727969709
53478,2.342,0.5726655265579498,-0.23230134090311005,-0.5313144372071765,-0.5794784297296532,72.29056556140114,26.19439423518777,28.790784772131765,-1.9657239928583423,8.34690505489584,0.5989773351775858,-0.3948433421844376,0.4546424267570286,-0.359523384571059
53479,2.350,0.5986302517694636,-0.22661138337949355,-0.5090142546638876,-0.5754942146870183,94.04988551863242,26.31100478528715,24.683721139335482,-0.3191520293086973,6.902896126452826,4.737235536689743,-0.3357459415112657,0.4416803777270772,-0.36140987520111895
53480,2.358,0.6217825979695154,-0.22664347596104173,-0.4960432726209377,-0.5621033778177167,104.90292817004817,20.624731978786603,18.745077534288548,1.1531824171006326,3.898422356706122,5.855968089498309,-0.2995576308844862,0.4323292790147624,-0.36886960236222127
53481,2.367,0.6323613164242384,-0.22818998801733706,-0.494703277803049,-0.5507423733378168,97.8154885424652,14.846013600357528,13.595548289864933,1.5515735445052141,0.6019669324638188,3.365969493608619,-0.2840279883849715,0.42732540615612175,-0.3557681833256495
53482,2.375,0.6302346215516641,-0.22952642224287098,-0.5023343441680178,-0.5456941908792017,81.8810634024167,12.003737713346395,10.897628691663455,1.3010341457973267,-1.8664099154590965,0.19109850655414942,-0.2906232291807755,0.42659765311031866,-0.3553211701569094
53483,2.383,0.6206923001929066,-0.23019210713698585,-0.514778013646064,-0.5447533927931855,67.6602897797592,9.645505546221493,7.558862942309724,1.114729158281391,-3.1540729877928793,-1.7592172027166013,-0.3050160946611191,0.4314663380837372,-0.35693756227503765
53484,2.392,0.6084000122872408,-0.23145645995272804,-0.5299911223801328,-0.543494933180875,56.663874744973015,6.83210126754908,4.517643189545756,1.2718420811876932,-3.996399452248543,-2.160906899434559,-0.32880674721042563,0.4405694205029253,-0.375509772269751
53485,2.400,0.596634906127456,-0.23473408166527635,-0.5462588274180222,-0.5390064871250895,46.07150805480113,4.060629060719618,2.9033430463434877,1.5612594429158875,-4.534555318062997,-1.4289455661531454,-0.3627373606559806,0.44715628446365774,-0.3763086719485669
53486,2.408,0.5881732197744911,-0.24127909181880272,-0.5619078715463286,-0.5292411617452647,38.07462389144727,2.1268018143629104,2.62954541261179,1.9025924583276985,-4.74387115240883,0.209772180731884,-0.39255807951992727,0.4633175155746263,-0.37155279671473457
53487,2.417,0.582637113674553,-0.2518602489613125,-0.5761967868048038,-0.5148763653907137,33.525781171482755,1.6071217082230356,3.840929788314116,1.9625610213952929,-4.956626008796608,1.8547214606251954,-0.4152091876846124,0.48644261024372343,-0.379018538035822
53488,2.425,0.5776171387974666,-0.264724944321608,-0.589529635178246,-0.4987323471241412,31.190183104378438,1.8352801039974147,5.000116465544762,1.8064945025581136,-5.142428778311813,2.5354033011709802,-0.43090479866828324,0.49166204866554897,-0.36941650890669453
53490,2.442,0.5633876996447186,-0.29241397810960285,-0.6167357851713869,-0.46553768546078317,27.129945798332113,3.0111191810218347,6.775223050132979,1.63503267514615,-5.6292668794216345,2.4715098106878433,-0.4696828662498295,0.5226912584455892,-0.3416722589115711
53491,2.450,0.5548794727837693,-0.30680786345090705,-0.6304613824280363,-0.44776796544061276,21.3504789638114,4.220464922984922,8.714744131582533,1.6486587518935947,-5.987821514395499,2.5331080381705244,-0.47808628906193645,0.5321026227992243,-0.3276618767795764
53492,2.458,0.5465334948816413,-0.3222478919003879,-0.6433703566770453,-0.42840637167001505,17.814505624780733,5.157053646807227,9.7516227026588,1.6792185823381565,-6.095262213760352,2.989437197041588,-0.49332884955418294,0.5442040488074318,-0.31323871602952574
53493,2.467,0.5388356805500331,-0.3389579457335398,-0.6549542448984593,-0.4071836900954787,14.417356089578796,5.899282379081612,10.375121758755316,1.7173225610541927,-6.099175943666955,3.592556926531109,-0.4849454369494638,0.5605275335681095,-0.2911140279132284
53494,2.475,0.5318060394676063,-0.357066372529797,-0.664848583635771,-0.3842685295879696,10.902249791159127,6.596855439451248,11.220233758317072,1.6975217270181244,-6.058725570368176,4.2407907979929345,-0.48288845152964227,0.5716964813668453,-0.2719165440678922
53495,2.483,0.5250876110721369,-0.3761072310258287,-0.6730681393884747,-0.3602854857037372,8.111691813473843,7.248488542632798,11.495726630391252,1.6234540229989465,-5.976986518048389,4.694484138335541,-0.4759219980192377,0.5830747901478129,-0.25634753079237743
53496,2.492,0.5179173515009172,-0.39508632006743366,-0.6801216605075736,-0.3363078108195977,4.9283614013439125,7.7525419639606605,11.666832061302644,1.49015694805975,-5.897931248716103,4.75681728598196,-0.468976366753434,0.603025450591098,-0.23793016499141867
53497,2.500,0.5098376924089967,-0.413033763109023,-0.6861989727303925,-0.3140057447799692,1.1168323253652226,8.366759288664415,11.821568908269494,1.1761991588099259,-5.681524799064726,4.399934574009883,-0.463920533727561,0.6346132060393875,-0.22818264181503137
53498,2.508,0.5007641137587862,-0.4291194586939062,-0.6917298708018189,-0.29428146115942433,-1.92711013830865,8.38173191565617,11.280865669444774,0.8359854758115932,-5.374104498656438,3.7658777060428146,-0.45010800743685153,0.6403626260711919,-0.21397508538360424
53499,2.517,0.4909780866845649,-0.44344821418953484,-0.6969737252301297,-0.27662578705990587,-4.373602532306373,8.067506555931752,10.796603184144377,0.6050742840115242,-5.1194243260953085,3.206919673610394,-0.44150345729670004,0.6596457991099944,-0.18870282646647885
53500,2.525,0.4808273913144128,-0.4564200201946008,-0.7019332637980981,-0.260337239174665,-6.674194847321007,7.402256533308937,10.257391746932635,0.47665200935281854,-4.9035302552231785,2.82961349767836,-0.4388732202843552,0.6609383024049997,-0.18112696808226592
53501,2.533,0.4707881599329964,-0.4681619901281253,-0.706565869746613,-0.24484184931377462,-9.228895337429673,6.777527785845517,9.449307158528208,0.4741916900732763,-4.686209352957098,2.5752753049920596,-0.43125552448115223,0.6858503641929655,-0.15445041981401317
53502,2.542,0.4611533779210513,-0.47864833625374575,-0.7107696032712663,-0.23030393678600536,-12.103315539906843,6.057882283634959,8.959793574031131,0.4727839402364647,-4.379978340834686,2.329388136585941,-0.42785202557934365,0.6844041297384857,-0.15245854231236336
53503,2.550,0.4519297674646381,-0.4872856821798352,-0.7148995041397764,-0.21732659340861443,-14.587294434475039,5.13402187313614,8.66754405009978,0.45055975253329067,-4.021665298166844,1.8764851496998944,-0.4128022251020309,0.6979448364733287,-0.1405133414441516
53504,2.558,0.44265982259924436,-0.49434652179788063,-0.7192981748925744,-0.20563057515592106,-16.514074803646846,4.624164304851205,8.407477239449854,0.4075237917803103,-3.816573288426,1.4348128059042575,-0.4129305812788596,0.7000647629132439,-0.12295502112692114
53505,2.567,0.4330868374489501,-0.5005581545821748,-0.7238217961954666,-0.19483154893939175,-18.89631239841163,4.187333874033315,7.971592835238103,0.31084330348047595,-3.7368500605421624,1.1655607380480735,-0.41597212938495154,0.7072905502201885,-0.1076638997445498
53506,2.575,0.42375100203512356,-0.5061004589763455,-0.728201850325936,-0.1844437011124107,-22.48122748489932,3.5719816995202787,7.101778407718883,0.33007869621235836,-3.593173381317442,1.0350925228207088,-0.40650080064405986,0.7083319701658936,-0.10076812155044221
53507,2.583,0.4158559593497074,-0.5107485372568408,-0.7318407575015495,-0.17495387512967708,-26.00436022189441,3.0022363152796556,5.882354324129839,0.4054805383159493,-3.1208817845801313,0.9462240343122745,-0.4058026955928307,0.702761029148769,-0.09607111812546526
53508,2.592,0.4100736867377441,-0.5143383964102496,-0.734349976647589,-0.16740877283205022,-28.800526341491683,2.4327186592674064,5.4286747582824875,0.38005174476183207,-2.34828257405791,0.7999186166784064,-0.40222022891204845,0.7138511680319318,-0.0851631115042699
53509,2.600,0.40682597180005625,-0.5168745359073258,-0.7353791355324143,-0.16294437646978213,-30.703230899746732,1.703120458765667,4.76288501345388,0.19270947633058103,-1.3335403957507361,0.6071087290446466,-0.4056114727798324,0.7118633624210653,-0.0888314008329203
53510,2.608,0.406468833172848,-0.5178775722973915,-0.73487137348241,-0.16294162208146945,-31.89982707707203,1.1512458171461593,4.253539464731864,-0.1495040905398813,-0.053986729893963255,0.2186309993454961,-0.39854761140544204,0.7123724828475101,-0.08658717269460947
53511,2.617,0.4088438034852961,-0.5167600112995783,-0.7331688398027059,-0.16813472995098674,-31.577002193043125,0.16246028238403906,3.536050647947195,-0.5707424673034615,1.2798295361606271,-0.39143857757148104,-0.40391125377470866,0.714804507424938,-0.08762610669377956
53512,2.625,0.41363539884490247,-0.5131730543944647,-0.7308181248221517,-0.1773810629613785,-30.22272795858375,-1.012926179308656,3.0035192527952934,-0.7728716565227166,2.3763687967821694,-1.0337108120713399,-0.40412346827335854,0.711833229600405,-0.09199429298738712
53513,2.633,0.4203037324229357,-0.5070195939072735,-0.7282391491887616,-0.18958809428411194,-28.569566365856147,-1.353560875526473,3.2407990381624763,-0.8208251175924696,3.2120035572273733,-1.6627890476912697,-0.41700412417307026,0.7054093684362733,-0.1000846796616953
53514,2.642,0.42855430264183064,-0.4979716022517648,-0.7256484296879616,-0.20445011501434762,-26.87944432194988,-0.6454178303406936,4.24118260142828,-0.8058153556986534,3.9474191656665507,-2.355132897402223,-0.4206741043907421,0.6934562886220854,-0.099021383064254
53515,2.650,0.43796361847212767,-0.48581218264605486,-0.7230785274009783,-0.22210771103027915,-24.89128810643143,0.5695084814319145,5.690409124451241,-0.8393748183289017,4.647499066173608,-3.1254847990739396,-0.4330130216425654,0.6859863716936856,-0.11442262193025533
53516,2.658,0.4481780117247396,-0.47045021153032085,-0.7203581685894654,-0.24268740639754455,-22.65486380777939,1.9953223262408268,7.333550366178654,-0.9293776910588523,5.316146110477374,-3.919198534967496,-0.452380735053536,0.6689281801593604,-0.1368647905537601
53517,2.667,0.45878980419696275,-0.45236159451175273,-0.717159894557668,-0.26563619673104044,-20.36984316086996,3.6376521997644535,8.941702972772989,-1.034223701345295,5.876212998799957,-4.564668077233236,-0.4615181855253186,0.6494588252311413,-0.1560352235352252
53518,2.675,0.46971337513371497,-0.43256076980418284,-0.712743944592642,-0.2902698659754888,-17.65630338752713,5.784075371276262,10.652782323892806,-1.181134110083625,6.352116264815331,-4.885285805201264,-0.48480453681668895,0.6324168590617868,-0.17679708547353182
53519,2.683,0.48100381763949906,-0.4120228013143548,-0.7066848958326407,-0.3153870584144331,-14.203510519376081,8.120175020341632,12.191965718358002,-1.257878213058467,6.7086423525025145,-4.867249858508788,-0.5027486779711761,0.612726553604928,-0.1935882183826481
53520,2.692,0.4934112900372416,-0.3918927807395162,-0.6983899317373434,-0.3394360772162319,-9.590583344548417,10.40675453539678,12.981851614721391,-1.1780950045905838,7.008012484481372,-4.365312737448059,-0.5094181538673863,0.5912693930658425,-0.21638410818572382
53521,2.700,0.5077305691232745,-0.37293137552185,-0.6874213177338442,-0.36136379211841685,-4.441921591864131,11.511504780370732,13.389143372063634,-0.9931340731168099,7.34769020587332,-3.5085046596915834,-0.5048081922591469,0.5853739447492999,-0.24583756824167374
53522,2.708,0.5238590268030717,-0.35547221064525647,-0.6740904302422448,-0.38054345264600115,0.7630263844103046,12.122242976165174,14.571061498727063,-0.7582576892019741,7.543289838961738,-2.557430994999496,-0.5024463384989273,0.5661162687125945,-0.26834416212398465
53523,2.717,0.5405187122839639,-0.3388026339122551,-0.6590293800026505,-0.3984125665918766,7.516128800077274,12.01287753876746,16.736037000800554,-0.7546971648416105,7.661143117019628,-2.0650350261921524,-0.4799737787070838,0.5567496937822007,-0.30324972137491707
53524,2.725,0.556046565512243,-0.3222003056580954,-0.6421660996878785,-0.41787782954773656,17.47341718952447,11.624833469049324,18.0197110512254,-1.281426051726821,7.837928049614098,-2.2202201398033297,-0.47103597594988056,0.5431278602225033,-0.3235643312888399
53525,2.733,0.5693745713588664,-0.3042712468311818,-0.6238629382944251,-0.4404845514480078,30.411962101568516,10.830189070830208,18.713701717340175,-1.9083792718143995,8.0737049898789,-2.9423723787696994,-0.45327513299397787,0.5338563195726536,-0.3484947525670534
53527,2.750,0.5900144681157161,-0.2650432123814939,-0.5867379988214345,-0.4872099585637037,57.17528426141863,13.838596695640934,18.39429380025251,-2.0448315010394333,7.9042623800369745,-3.6046948235734155,-0.41809884083613935,0.4964009307192002,-0.38450569419889463
53528,2.758,0.6013825284862695,-0.25169285556139087,-0.5690070350617465,-0.5012192683258051,87.32053794955098,19.98652658378028,14.72856671159443,-1.4318140959796304,6.572002956710395,-1.3353171811073803,-0.3918871205458519,0.4726021440646678,-0.39654017943847447
53529,2.767,0.6143459141926056,-0.2466990302341872,-0.5552117416516632,-0.5034467281932526,98.51841741594657,18.3994539667548,9.428358086496567,-0.4392354086433993,4.48473301584286,1.4269621625214854,-0.36156430264249634,0.47571092768370427,-0.40318445692720906
53530,2.775,0.6237794970541338,-0.24675433366623453,-0.5492705334833037,-0.4983104643882081,94.31759639377768,12.122032277137428,5.695259312125553,0.5437608350167374,1.7991593787213485,2.2646744459657553,-0.33728263018840143,0.4750766401560554,-0.4183828923499935
53531,2.783,0.6257544378392239,-0.24832987997336703,-0.5514277953375527,-0.49263682441134715,80.95126658860617,7.948448831212571,5.003934107293911,0.9059599418504833,-0.5968254945642801,1.1450366508337213,-0.33103491211234654,0.4776477392903765,-0.40468877542172976
53532,2.792,0.620109760255212,-0.24941288946826448,-0.5590896409179783,-0.49058726973039285,66.41607435842708,5.053538952284447,3.88437390858923,0.68315134764044,-2.139653383398498,-0.7054166766375392,-0.3436927644780045,0.47247234114490055,-0.4098594894623205
53533,2.800,0.6091449057315074,-0.24937095968827055,-0.5705414822574937,-0.4911608955412948,54.33519572078598,2.7295779829718327,2.7525479951268346,0.6166155283254269,-3.1154678429660376,-2.110111921941484,-0.3698826742892727,0.47622236601943063,-0.4008085410213217
53534,2.808,0.5957043692245665,-0.24948819269311748,-0.5844717288130826,-0.49120743521625454,44.9580280603322,1.9685486466051614,2.049124691788202,0.8064428690542302,-3.8612774507438683,-2.4608704972657036,-0.4113763282862307,0.479384461551943,-0.40236268545450754
53535,2.817,0.5830776126891417,-0.2515205133093423,-0.5987082144507809,-0.488166368069836,37.00430075141769,2.321172189265351,1.8695003847040763,1.056935334008411,-4.211668884938227,-1.6773629757305752,-0.4255916831806364,0.47579437241784034,-0.39486361358104716
53536,2.825,0.572928017200607,-0.2575823528854865,-0.6120381551096276,-0.48043117642234834,31.862201887633873,3.2761403723398668,2.25519033544705,1.2216182001176437,-4.495710127630832,-0.10279708011500342,-0.45280629685365154,0.4798511104644279,-0.3792307980775615
53537,2.833,0.5655199436147833,-0.2677522487679878,-0.6240472127535186,-0.46803953135198206,28.58422299295392,4.810630821313957,3.5946718474917425,1.3707483810852166,-4.6921777909038855,1.538541156987475,-0.46480765476907215,0.4867377338693731,-0.3740124393369859
53538,2.842,0.5590469201362913,-0.280344430301717,-0.6354125300054211,-0.45290667713894783,26.276158917196064,5.820356519658894,4.871832476200883,1.4458701603170945,-4.917834305233535,2.413804823888609,-0.4829618936889061,0.5000366288920423,-0.36206351506276085
53539,2.850,0.5520915776427499,-0.2934801795954808,-0.6468924245165627,-0.4365712601438943,23.717282896671012,6.505805595361931,5.889229403489312,1.5386134379034577,-5.152188841444492,2.5985232010422346,-0.493332361180426,0.5138608697061269,-0.3461561468969536
53540,2.858,0.5442543621245778,-0.30655268369144784,-0.6587557923234483,-0.4193488374971927,20.696856297491376,7.111023676780243,6.802129249215398,1.6618615192010817,-5.392999026071031,2.580146014647964,-0.5027199840964423,0.5157134874317714,-0.3311045578540791
53541,2.867,0.5359925357178899,-0.3197144608597709,-0.6706476039724386,-0.4009070421654887,17.398886934624212,7.589850645840296,7.748497294255017,1.8164224025183986,-5.566518716668532,2.7094904346309234,-0.5082330929369242,0.5246875865466899,-0.31169741560563596
53542,2.875,0.5278871946296274,-0.33357830009705636,-0.6819609359603288,-0.38077540529101006,14.100807018687615,7.780230190579537,8.259596355220893,1.9566814382652415,-5.666806419390757,3.094567313762483,-0.5076195476719788,0.5350963305696806,-0.29543316352768256
53543,2.883,0.5202633137767102,-0.34849545304068064,-0.6921811043629825,-0.3588346726709805,10.85240407958322,7.5293870980953095,8.722865754158184,2.06255961528848,-5.6968191957482786,3.629655454953714,-0.5109704809232352,0.5536378431069908,-0.27121789316460554
53544,2.892,0.5131107116957159,-0.36418435196236176,-0.7010664926600733,-0.33554869720828,7.4192313496649565,7.0434454397186945,8.962488940772891,2.117091331352063,-5.635998381612942,4.076583854331526,-0.5034511914063867,0.5695711699614749,-0.2644777811611542
53545,2.900,0.5060851915155428,-0.3799979788245925,-0.7087627123655357,-0.311664455108616,4.120997736802066,6.808045916245398,9.413904482295449,2.119616060376426,-5.531630486724159,4.288230295826209,-0.49839674779712917,0.5811402964504222,-0.2545401945021212
53546,2.908,0.4989546732631153,-0.39566225858302057,-0.7151958082016628,-0.2880808343028942,1.059949928986431,6.711891200903247,9.467622149973536,1.9827928379690465,-5.3606544457610354,4.335728835009107,-0.49578629943897623,0.605897058316524,-0.24425737228077388
53547,2.917,0.4916175164071816,-0.41112082594994476,-0.7202947101639213,-0.2654569918870901,-1.9253439080158197,6.5371480117821745,9.098584290758748,1.7305630996634649,-5.127792291545903,4.302427456312268,-0.48198196758853157,0.6221556416173178,-0.22892886779258875
53548,2.925,0.4841322904463001,-0.4264227526420811,-0.7241513312182515,-0.24368916855536402,-4.516685143826885,6.461590980030781,8.805853953862862,1.5073176436251734,-4.916521492326761,4.291825936633374,-0.4654496858678651,0.6332318730447911,-0.21939101130968272
53549,2.933,0.47659302691241906,-0.4410324920791191,-0.7271383430893852,-0.22275380499143949,-6.522537336682966,6.795397977544347,8.65121306347968,1.3855346391085237,-4.693552083681053,4.162836873809612,-0.4533271169611967,0.6553147986212913,-0.20779247445077353
53550,2.942,0.4690540172420578,-0.45408502613821156,-0.7297025960501817,-0.2032959401064678,-8.60159765618827,6.874520936996477,8.734847112040619,1.2806805180246292,-4.406978075431452,3.7720741333836236,-0.4434170145877327,0.6632567494276311,-0.19412257984729542
53551,2.950,0.46122523445987534,-0.46501927910711105,-0.732502702141296,-0.18565598431463462,-11.081557522251938,5.969789717613724,8.687569866100329,1.175799623766844,-4.171561417340166,3.1575643265415327,-0.4311011616787036,0.6727098361483342,-0.175566283478862
53552,2.958,0.45288936844228594,-0.4738153060435969,-0.7359097349114978,-0.16978556408967568,-13.56285723702769,4.270972657163567,8.696216292541239,1.0676305855937127,-4.034537022875211,2.500149700721963,-0.4259770675502267,0.684920953039667,-0.1751564512055573
53553,2.967,0.4440386381903056,-0.48087015909745673,-0.7399515804804729,-0.15512974063066245,-16.32746366026454,2.3869223342483488,8.77664872905876,1.0051395591500838,-3.9745599247323358,1.9656309206914566,-0.42114925085131183,0.691584308006691,-0.16761552327288992
53554,2.975,0.4347964227596684,-0.4866210820331887,-0.7443145343582854,-0.1419431830672167,-19.85286968788052,0.8371116873632171,8.70521782347315,0.8473983612538295,-3.8614874876487186,1.5307937049553595,-0.41067621481504724,0.6952787030584636,-0.16415582602823445
53555,2.983,0.42584937061703476,-0.49172599563473424,-0.7481661908670593,-0.13078688621410098,-23.84960473984868,-0.16871471533191765,8.645943699009912,0.5666149651956882,-3.4883264186110376,1.2760697527628417,-0.41128925303667085,0.6976381233012711,-0.14709163913105178
53556,2.992,0.41784199022495827,-0.49608634587290756,-0.7511021241258403,-0.12309349201709655,-28.11191532673142,-0.5225595582843187,8.571554666610147,0.1008765116886759,-2.794890439596607,0.9379067135047968,-0.4108421832992034,0.6954942686216484,-0.14145237786253526
53557,3.000,0.41141612523752663,-0.49844979587365995,-0.753368672089109,-0.12132690057336573,-31.681657280746037,-0.8287108994094009,7.504412768890165,-0.6051611256663587,-1.6659562062962858,0.12384637646946943,-0.4131178282186235,0.696816904737314,-0.13073861295296205
53558,3.008,0.4077337704169251,-0.49775701210921464,-0.7550389175961563,-0.12612439206168952,-32.81151163316732,-1.723132321387667,5.279149366935903,-1.187100589032427,-0.22869172237235877,-0.907302644710259,-0.4180091791299602,0.7004904386055525,-0.12958845892628904
53559,3.017,0.4073792643008172,-0.49421280834900566,-0.755871429661329,-0.13584629882058946,-32.227681576910975,-2.090760709636645,3.9006730741920874,-1.4340249694140472,1.1402102075925171,-1.6909012789271003,-0.43002052756078246,0.692008485405216,-0.1230034603099256
53560,3.025,0.4102002452959194,-0.4883641482411808,-0.7556787999146509,-0.14894887992659356,-30.313886623602468,-1.6651784461330383,3.6279397739523094,-1.483127106348893,2.299196842717566,-2.2041174839907893,-0.43492849909379505,0.6876466029489605,-0.11957970943372129
53561,3.033,0.4157182556297586,-0.4804593396081442,-0.7544813610876078,-0.16460568243790324,-27.58430904803148,-0.9861953634098364,4.505229412400739,-1.4662829858717368,3.2624894572355374,-2.6043419373824706,-0.44538458709406303,0.6709901588672366,-0.1253577917544209
53562,3.042,0.42305117622219907,-0.4702301345915839,-0.7526811385958235,-0.18270858332626375,-24.1762361378016,-0.02732696946246523,5.643329744678624,-1.496575086123026,4.034723749456638,-3.1227992174153836,-0.46149582264698674,0.6685465447434011,-0.12569652577384274
53563,3.050,0.43145202289630685,-0.45760366149801485,-0.7504296620168079,-0.20323228898882015,-21.316575353583314,0.49811913259481894,7.157387347756765,-1.59317041169998,4.652947301510002,-3.6953761740262854,-0.47603265846748144,0.6508231837138747,-0.14101647724131183
53564,3.058,0.44028614851184633,-0.4427299599201478,-0.7477488834931927,-0.22585370763481488,-18.94271952220958,0.9813998199882539,8.663710243592316,-1.7168896032818646,5.126855130362966,-4.2463749067997,-0.4911053707906428,0.6414628133644338,-0.14982748123323558
53565,3.067,0.44908297341204134,-0.4260527442784046,-0.7443615924196768,-0.2504583035450886,-16.58835365495494,1.80064230807732,9.921540459150373,-1.9267590739033826,5.5018189732777145,-4.6991475552658395,-0.5007082623407153,0.6165924739435359,-0.17212409122982864
53566,3.075,0.45777409929264473,-0.40818786461025186,-0.7397988372527668,-0.2766283094717264,-14.398998879208253,2.5365896572505644,10.759213923862509,-2.1632480216985543,5.849935760150024,-4.963676008955874,-0.5250355653451969,0.5971926562937636,-0.18408148189780257
53567,3.083,0.46648016400213393,-0.3894650642706034,-0.7337743778299886,-0.303790030688057,-12.793816464248698,3.3740321981168795,11.854673722184408,-2.3402317127696346,6.162370785421948,-5.074282885473544,-0.5419925132806341,0.5767560545168492,-0.20232326110503301
53568,3.092,0.47532029041117624,-0.37006820308324934,-0.725944245085298,-0.33185102021495677,-11.094581831300223,4.502524362162108,12.83696015885457,-2.543889145971053,6.527097650544993,-5.111855953168466,-0.5536038174173157,0.5517134406622243,-0.21706401470139022
53569,3.100,0.4848849063944598,-0.350586581123173,-0.7153338522003074,-0.3609337287972272,-8.601537730169499,5.845822074619658,13.349071923874233,-2.8669127095704083,7.061335250300444,-4.9295707895488245,-0.5497499663332823,0.5385242365226803,-0.24327969311901324
53570,3.108,0.4955897338513474,-0.33154144289034326,-0.7014163145069402,-0.39049486691996566,-5.098036912810422,8.1042023824118,14.22800774280688,-3.1884036800524687,7.644228934984411,-4.525638218611075,-0.5540357678023033,0.5090849715725766,-0.2581693079278386
53571,3.117,0.5065859328385519,-0.31200347958680424,-0.6846307639190189,-0.42107628580992534,0.7628697872197627,10.406284298663525,15.414118456404369,-3.5461676097574855,8.158249120093792,-4.466778402331123,-0.5477971578683568,0.5035379587951597,-0.27662705358156886
53572,3.125,0.5160945378828043,-0.2910663225627166,-0.6659690193246858,-0.4532241047617264,11.383043165310257,12.535202905794291,17.16834924464549,-3.937781206895611,8.405586963493137,-4.890450575591884,-0.5412260645582411,0.48518031023798436,-0.3071686414131355
53573,3.133,0.5225803239502997,-0.2697306544221628,-0.6466769084944918,-0.485761417884334,26.8714947868923,15.764848378192132,18.541872132493847,-4.233420681872013,8.074176690954008,-5.2899338255697925,-0.5274452477852726,0.4657503597675518,-0.3220212210665779
53574,3.142,0.527148146482454,-0.25043503333965556,-0.6271556124058189,-0.5158226086206008,45.6615293679589,21.51810262065822,18.00198824799369,-4.251541265871793,7.399608584952289,-4.874368119286485,-0.5206875683554908,0.4411195141495462,-0.3446888210254794
53576,3.158,0.5454489038060004,-0.2340170890620097,-0.5859712544777028,-0.551687578516685,74.42404124819124,28.64165896158178,14.384629736689131,-3.6598075714184017,6.091663592186865,-1.058306347790521,-0.46318973702306476,0.4353399612970817,-0.361548848902483
53577,3.167,0.5636022443132492,-0.23872667318991594,-0.5700855902213007,-0.5480552029994564,93.04478080621622,31.695376325002734,8.359429167461327,-1.144389649734187,3.756502683338021,4.474156390421023,-0.4198717602993944,0.4488744634509717,-0.37576602142942617
53578,3.175,0.579620077475799,-0.24567263932454214,-0.5622602048104931,-0.5362359388932498,90.12981245934876,27.77360469147576,3.8393509273294204,0.6138033418368117,1.6120956952847405,5.10763941342027,-0.39132798911874056,0.4447497568883272,-0.3728324554685537
53579,3.183,0.5858651712448625,-0.250337875084134,-0.562934838023197,-0.5264953158009915,78.49539413951507,23.26789184507119,1.7484917852985045,1.1513365962018658,-0.4526658549332911,2.7292782248277283,-0.38055646744293076,0.46009283649151195,-0.3768059231655503
53580,3.192,0.5820064216839562,-0.25124294881146236,-0.5704179274314921,-0.5222728155436767,64.61432328310822,18.081050111043233,0.27755889999973604,1.165749952121655,-1.9381386042789097,-0.2564103918806042,-0.3815932738417569,0.4660307563220143,-0.3685685049022069
53581,3.200,0.5716013842709741,-0.24845702497801403,-0.5824872464241223,-0.5217754037819573,51.75813985554667,12.217714793570618,-0.08977404681902562,1.335406325313263,-2.766395999854158,-2.3875445768712478,-0.4091597237100269,0.45574949730950914,-0.37160230221685103
53582,3.208,0.5583187710467505,-0.2437690161920848,-0.5966571308203168,-0.5223572387579758,41.69234415508531,7.409147211513937,-0.2619497403587786,1.5309795717620387,-3.146972585978721,-3.2932667807500793,-0.44774215677023416,0.45112262404826453,-0.37061962829577905
53583,3.217,0.5456309887594616,-0.24003358312897305,-0.6103664454447352,-0.5216545843283643,34.435459371350255,4.405461567813427,0.2620405969635683,1.5662089304140407,-3.195611010399673,-2.884170612797858,-0.47656809796264854,0.44723972919779376,-0.3683519049122428
53584,3.225,0.5356493058262762,-0.24112583199881799,-0.6224242613460588,-0.5172293429403633,31.162244001344018,3.3811400002663268,0.4127925386482995,1.4414545097461173,-3.420126481628613,-1.2562454248267652,-0.5058947318337513,0.4443495781981156,-0.3643881606037991
53585,3.233,0.5289795243616847,-0.24760673245339285,-0.6328296159824331,-0.5083288758130571,28.640160010609986,3.6373643746795534,1.5961173364873655,1.4162093315684683,-3.655182990551328,0.6269626979153848,-0.5267705616232139,0.45159159087003103,-0.3475184597404489
53586,3.242,0.5241472851131549,-0.257878593956172,-0.642560083391251,-0.4958677177634437,26.33249081580031,4.332888203449133,2.5660692391615756,1.5134056028596554,-3.9804375152775457,1.9174485822741836,-0.5276012359419774,0.4500101685303289,-0.33408081845180876
53587,3.250,0.5196276117319666,-0.2701981146296969,-0.6523141633987326,-0.48110950542023356,23.329649101679447,5.08740552217096,3.9896117657595624,1.6356012064492829,-4.323722835973902,2.550624650645731,-0.5460366790595833,0.46921685056284,-0.3170627221320871
53588,3.258,0.5148653904503867,-0.28391610248073157,-0.6619789936016374,-0.4648538356286685,20.36941469681121,5.92335607814391,5.424293499302709,1.6737546449471716,-4.616353272530774,2.9344133655510345,-0.5458560452819884,0.4800419986410133,-0.30837449117965204
53589,3.267,0.5102738285765194,-0.298944024100794,-0.671102565482276,-0.44707318967635806,17.81902372913393,6.629303650881545,6.6516153945835015,1.707630276930921,-4.774272939560444,3.3816042217930864,-0.5486974305941943,0.49660265929530173,-0.2870665858448646
53590,3.275,0.5062382021483818,-0.31549433802795335,-0.6793315593512061,-0.4274281668623829,15.536122861861623,6.91265025923942,7.397714692904195,1.7708902616747835,-4.880544055924626,3.9813215920721228,-0.5421678136120599,0.5032752858994519,-0.2785366727034203
53591,3.283,0.5026255656655677,-0.3336036315158636,-0.6865722393153516,-0.40582597006635784,13.087470136266434,6.362607558384604,8.10613351765218,1.8349681797598456,-5.00469608912839,4.586846028791563,-0.537447366880647,0.5315634400207253,-0.2563082063255845
53592,3.292,0.498984698424521,-0.35298402554112496,-0.6928371557327676,-0.38261367472569696,10.253962275714605,5.624049818649404,8.885590006182161,1.8539357905674692,-5.149831365486757,5.067803502061113,-0.5418687247408872,0.5547928406074925,-0.2526545566271569
53593,3.300,0.49488889681004355,-0.3731537084172531,-0.6981406102006014,-0.3583866321409357,7.103971452714019,5.070570618623636,9.690006511663977,1.8030269210831504,-5.272856327443068,5.357117343120793,-0.5295711469843746,0.5838017940467242,-0.2315983339625556
53594,3.308,0.4900239908096401,-0.39340108833310855,-0.7025067642002163,-0.33406035140713936,3.911641340759937,4.8860135283487915,10.303296020204005,1.6616634851625394,-5.305172360062597,5.402919280583298,-0.5045389563254439,0.5924946769916825,-0.21587175746949222
53595,3.317,0.4843513071721846,-0.41290182450894647,-0.7059038202937573,-0.31083064690029993,0.36148958765171635,5.181489737321415,11.08964233909821,1.408586115890862,-5.165115064443058,5.176343809246913,-0.48704139352937725,0.6214085961503705,-0.20478710340202325
53596,3.325,0.4775564056025602,-0.4308267136309854,-0.7086876479104368,-0.2899828270588819,-3.1289526428245273,5.351679145915966,11.30280866108444,1.0273774364421273,-4.92149640778235,4.615903429626542,-0.4828083792641044,0.6360231735608604,-0.182676530046767
53597,3.333,0.4694791798694032,-0.4472685818601404,-0.7110287092047356,-0.2719895035412568,-6.377843262227118,5.217036563663811,10.881128293694072,0.5435528515141145,-4.689697839523593,3.998140847803297,-0.4607210798642276,0.6559668802763007,-0.16488088289828995
53598,3.342,0.4602959439406879,-0.46280869265213614,-0.7128963126983585,-0.25634860120245706,-9.130817552218959,4.505927214240683,10.385152414100013,0.09110487560123844,-4.504253087204225,3.563165303662139,-0.4555064973076553,0.6659360411512936,-0.1434515009878907
53599,3.350,0.45022279955736844,-0.4775167782810079,-0.7144778498671661,-0.24248414230222193,-11.654489413198876,3.33500050584267,9.797969329682592,-0.24028934940627308,-4.379273660238054,3.205550218175985,-0.4346470407344473,0.6854007602609494,-0.12468364918945793
53600,3.358,0.439321238516799,-0.4908577957575554,-0.7162799335616812,-0.23021409711174107,-14.704390978612208,1.4381631658516671,9.767268316886183,-0.4513383302412946,-4.271948535573079,2.727375977218485,-0.42430419631468314,0.6904850107975529,-0.10341455498696807
53601,3.367,0.42755649071772917,-0.502299481046708,-0.718705799987404,-0.21989236378240723,-18.170353306740036,-0.4007196059724969,9.536730031078141,-0.6584359494653615,-4.1519872597844,2.077409742582632,-0.4163201095955374,0.7025423965294109,-0.09346018776911386
53602,3.375,0.4155168990374043,-0.5119775237059021,-0.7215252792550105,-0.21124865261177722,-21.78316744871671,-1.9424222769972441,8.900492050011257,-0.7827672718374488,-3.9326925023587043,1.54134727031449,-0.4095536833261783,0.7065388689346778,-0.08392650122480992
53603,3.383,0.40438809158523703,-0.5206659094011922,-0.7238118678333415,-0.2036508339170013,-25.327560469421794,-2.4016339275962815,8.305529897604714,-0.782387191415106,-3.5473255768769842,1.3809067693165762,-0.40385256634103434,0.7172427365833183,-0.06225638038231616
53604,3.392,0.3955774332310132,-0.5295100590151078,-0.7240732588849618,-0.19711800396689289,-28.41966881568519,-1.6933605337892312,6.9008495145098205,-0.7887854627930693,-2.819558402336202,1.677989091378441,-0.39005980628408715,0.7210646166455766,-0.04534492708797937
53605,3.400,0.39007521248693894,-0.5383476263161148,-0.7217027167727822,-0.19279095011400385,-30.726660504716484,-0.4832405147582268,5.777375889761975,-0.8749456253764689,-1.7204393127776347,1.9684927163645791,-0.39071926124108547,0.7232401729082494,-0.021931221780993822
53606,3.408,0.3883020492452687,-0.5457067221282916,-0.7173355599539749,-0.19197756744327735,-31.83000702172309,0.9179633776983841,4.660254322916324,-0.9553667188451622,-0.36014541353755747,1.8284512199257283,-0.3716566961843141,0.7300503053069032,-0.024542269943011057
53607,3.417,0.3902376724674632,-0.5499787990013796,-0.7120506904743126,-0.19550369262812645,-31.344988872184004,2.7519006940030026,4.144217419271019,-0.9776243510405155,1.0800656467478578,1.1956347106440806,-0.3638514755795117,0.7310360954298509,-0.023517938928798457
53608,3.425,0.39519170519801466,-0.5503710699699228,-0.7066841939052337,-0.20374653755918992,-29.40314093280046,4.263625993430088,4.057432452151334,-1.0310937720971818,2.4176445484320244,0.258064724283245,-0.3609126213830547,0.7356629686910956,-0.024761177267695528
53609,3.433,0.40270405578214863,-0.5467563026687671,-0.7016237923478482,-0.2158959076963058,-26.874196075453618,4.528771052353062,4.444253013967949,-0.9689649320927218,3.5463251202336976,-0.6993505630001878,-0.3696944800597136,0.7332124008394155,-0.025778739948985396
53610,3.442,0.4121114847162718,-0.5392479383609515,-0.6970450587225756,-0.23130925456811063,-24.20125026428123,4.100883718895438,5.5740378271037345,-0.8743306025687735,4.455298708284487,-1.6255623450062702,-0.37421549807008303,0.7293974745050017,-0.0418900058115082
53611,3.450,0.42273577182584193,-0.5284397485076565,-0.6925901791273715,-0.24972933987077015,-21.450799042584844,3.7583217914168965,6.8821032464499705,-0.8932078743315671,5.231415211853406,-2.4181889394714924,-0.39516709340573253,0.7195743419147471,-0.04805385253165808
53613,3.467,0.4463758939820864,-0.4988543566240442,-0.6820995999648045,-0.29433489068874963,-18.004752243266786,3.455152293533317,9.06672230981889,-1.0362960114417594,6.248388295424331,-3.2915519449439317,-0.4205357196138069,0.6870015454904018,-0.08455375368323013
53614,3.475,0.4586231833182665,-0.48096577395359663,-0.675441604683278,-0.31955490713039625,-14.707543608709871,3.900762469254815,11.001219273567704,-1.2358416187411407,7.049115792475269,-3.903633860278549,-0.44113603662983847,0.6780158568290754,-0.10537247301833834
53615,3.483,0.4710292589576364,-0.46207928581310537,-0.6670925425025374,-0.3458348024212872,-12.17586109693547,4.716046050565232,12.326808048505479,-1.4089048579137282,7.452763433882952,-3.967388694171919,-0.4523100636915181,0.6640262953091082,-0.1131343905117079
53616,3.492,0.48343587850307146,-0.44322924609336684,-0.6566034824872365,-0.37243718070179693,-8.561330004482002,5.272304645888817,12.926317724885864,-1.6411722901732482,7.729692768836921,-3.7569574917180475,-0.46092367242129284,0.6428016748450701,-0.13716749115725907
53617,3.500,0.4962896688286572,-0.4244112202778238,-0.6443326102298911,-0.39800398001849896,-4.145526063937962,5.823044232267833,13.545819123059259,-1.5903811806170105,7.88648679881623,-3.40035846401891,-0.463185140866661,0.6371967143356142,-0.16179077834765326
53618,3.508,0.5091379143827766,-0.4049877408783289,-0.6308598464477507,-0.422823093049735,0.5122343829194204,6.512388570946887,14.488011162577124,-1.5172585492956263,8.011210049558658,-3.281851244816243,-0.4683790536755779,0.6164580352052056,-0.1860476521573525
53619,3.517,0.52142609040913,-0.3838980318450478,-0.6162633800090509,-0.44828180851554644,6.804364433359195,6.786065337981579,16.105810879351317,-1.580928726133016,8.296007268319737,-3.5573911757091725,-0.4591214516551816,0.6129922935568092,-0.21671099711150218
53620,3.525,0.5325287713900544,-0.3614091553535225,-0.6008822026991508,-0.474064456111054,17.93053818107392,7.873898257017641,17.554324955254003,-1.6493698479904348,8.401017623925288,-3.8570528229160153,-0.4684855120932017,0.5888612967281223,-0.2382804066666822
53621,3.533,0.5431077642604213,-0.33926782493972885,-0.5850242835866986,-0.49767246957671124,33.346067129521934,8.942780287136854,17.526037066660958,-1.4777864742193563,8.156340460669064,-3.5523426605632364,-0.46242597160285914,0.5693131328843303,-0.265640374355862
53622,3.542,0.5551612019593863,-0.32156790001052,-0.5681516885263752,-0.5153579186802731,51.74062848451071,10.792460852119794,17.829534298755178,-1.2132826609080922,7.4621969121237015,-1.903558394165084,-0.4388099707973603,0.5529664690308371,-0.28997249935679315
53623,3.550,0.5718118921388591,-0.31146853584872697,-0.54989583736733,-0.5230994926693303,72.12879801900105,12.787237281136553,17.012201483503528,-0.6648158410223449,6.541059373310876,1.1186789788294613,-0.41158315292263553,0.544743302054537,-0.30727477314523133
53624,3.558,0.5933517527795437,-0.3086920355227652,-0.5321698121934346,-0.5190743835600639,88.29606181132634,13.718889990734409,13.636491484293023,0.33915485190248945,5.278816266022755,4.25737844952292,-0.3755954850010087,0.5448576287562251,-0.32068563540609285
53625,3.567,0.6140305432297998,-0.3117653588971939,-0.5186376411672093,-0.5067384435161143,92.15886610628415,10.854169242751881,11.077454094708592,1.0365254331135905,3.2185097593593497,5.743731152663636,-0.33433058688017564,0.557545415344061,-0.32123692052685454
53626,3.575,0.6235533883861966,-0.3163586183059041,-0.5119350485315629,-0.49901994202702926,84.757328851431,6.97546216727823,8.239814233463662,0.2165774100520576,1.00215525086723,3.369922827478365,-0.3064084367959967,0.555230035377603,-0.3334628835186229
53627,3.583,0.6184993003468979,-0.31837438178346944,-0.512757233477718,-0.5031663621613325,72.1785931228084,6.581655273332567,4.879416877587751,-1.093520881187567,-0.6595852501456754,-1.047218862966441,-0.32110380315365483,0.5677432296224301,-0.3270968513400291
53628,3.592,0.6033291767810346,-0.3174623729908372,-0.5198099540733124,-0.5147904018394739,58.46572222575506,6.824622264342997,2.3970239730422116,-1.6228877771731982,-1.8755260049280256,-4.222980913704991,-0.3441280569407482,0.5578312673325843,-0.31691641011193056
53629,3.600,0.5845816791255934,-0.314348341582326,-0.5305297079919503,-0.527245302978717,46.87111052957586,5.312270764713567,0.26628847752859697,-1.235441513023586,-2.5058388419511832,-5.348927949534871,-0.3798827220073345,0.5516276075502008,-0.3019810783882068
53630,3.608,0.5671406950103056,-0.31096365650095426,-0.5424870245453793,-0.5360605046062297,38.21267305758737,3.282877430694236,-1.2017572329655846,-0.4750647995482583,-2.757332193467917,-4.808599945815037,-0.412406688811973,0.5431526080777086,-0.2948136242508148
53631,3.617,0.5537335564231509,-0.31060104370574954,-0.5539283890508537,-0.5385809873578858,33.02356672930441,2.2895910602449256,-1.1831774798148547,0.18133451908060294,-3.038764816646558,-3.007886538351458,-0.4332583813036977,0.5381556889469126,-0.2812457543997804
53632,3.625,0.5444977691196277,-0.31544623313925874,-0.5642869800294835,-0.5344118800992426,30.779505077602145,2.4905921638106174,-0.022128684275247796,0.5650543488357519,-3.530096831409658,-0.814874086082287,-0.45725123669565293,0.5397085472283442,-0.27215788314249767
53633,3.633,0.5382635573064565,-0.3245724077000413,-0.5738122709791941,-0.5250376869418972,29.192253411437587,2.8759791492960107,1.2600955675722938,0.8440002366857553,-3.976954905712726,0.8881392450602736,-0.4680671926465446,0.5527447693553053,-0.2621060851755708
53634,3.642,0.5333581795060217,-0.3362262480687673,-0.5833669335743882,-0.5120195145457227,26.815539162337913,3.1085771653127563,2.6025282977050397,1.1330092153083215,-4.405935068391639,1.8640765326416209,-0.46914069637102446,0.5699613278676685,-0.24884870282062302
53635,3.650,0.5281373639708531,-0.3488834860705853,-0.5935225815142232,-0.4970736194547514,23.752222428370075,2.959234567989781,3.9187477734270817,1.325810312184867,-4.812399125771626,2.16090112253307,-0.47535763685511695,0.5791424700555375,-0.23335520205980365
53636,3.658,0.5220323736195698,-0.36162875630123104,-0.6043641827598968,-0.4810933153828948,20.20034731631703,2.9487008479906676,5.273156128175928,1.4689894709530256,-5.118983097661689,2.1351090641567114,-0.4866907027771121,0.5880655751662621,-0.21936160048663014
53637,3.667,0.5153336010034278,-0.37449180850991914,-0.6154485585533127,-0.4641230836862782,16.659160745715088,3.0458312705217185,6.35960441397408,1.5754020795491241,-5.338872337496232,2.1863407953151777,-0.4833583170638832,0.5906181310263308,-0.20764188460033356
53638,3.675,0.5085842589446045,-0.38790142050278226,-0.6261607040441797,-0.4458669221153201,13.592834947872678,2.9265986696301285,7.345785201733672,1.6531256626205155,-5.4772715207471965,2.449440770158054,-0.47511223322526075,0.6028964672868287,-0.20012928152759443
53639,3.683,0.5019657588067472,-0.4019460255039146,-0.6359907315410467,-0.4265976546595841,10.82276510304559,2.546577430416822,8.315855204560807,1.6485555231049032,-5.517313596947557,2.767061770366643,-0.4798353748340781,0.6183878930840332,-0.18859130624799245
53640,3.692,0.4953968178647899,-0.4166315303444063,-0.6446275565031326,-0.40676218379923085,8.178005010002959,2.3079927265721505,9.117581583802824,1.5420039496599953,-5.48868067299243,3.051943493192319,-0.4783285936080907,0.6372059859727405,-0.16092493659661566
53641,3.700,0.4886254994491857,-0.43182739477415755,-0.6520265440756846,-0.3868224505264885,5.6780607754626224,2.592607793642686,9.6363155299108,1.3582581931259852,-5.435229347262055,3.251652797435427,-0.4679433083261865,0.6366196253931125,-0.14546148627043276
53642,3.708,0.48146978332841683,-0.44731523952530977,-0.6584035948333816,-0.3668795858869542,3.2892088099896357,3.4898907803038983,9.916295993682748,1.190211938886224,-5.405813755879417,3.3674664586935505,-0.4631037842809337,0.6576727205703151,-0.13952204992271172
53643,3.717,0.47382907123516205,-0.4625657022806705,-0.6640397067125746,-0.3472322713042271,0.61860765664305,4.152040398643136,9.95994404759302,1.053779068635785,-5.342129558921407,3.336228190028981,-0.4508328684938138,0.6625452922154048,-0.11481863699074327
53644,3.725,0.4659069315019568,-0.47730188650844874,-0.6688686090485881,-0.32822008491759624,-2.431960128576025,4.525739279468647,10.130090725643711,0.9114753849523773,-5.184551596716911,3.249525228782302,-0.42674810136893787,0.6792573661198862,-0.10308165778827584
53645,3.733,0.45754047273097465,-0.49181574068593503,-0.6727732584694328,-0.3100808535125693,-6.213944542711008,4.278463679333316,10.045380341544893,0.6724083936387909,-5.030788724878572,3.191444911502883,-0.4287880607883922,0.6874272211827104,-0.09121039242391123
53646,3.742,0.4485999989795339,-0.5061937918982788,-0.6758545118945882,-0.29282514357707223,-10.1777959056647,3.5875612078280845,9.323404900006553,0.4147700122621029,-4.923030070713283,3.129571594022537,-0.4030320011464081,0.7017466749675506,-0.07431115686372315
53647,3.750,0.43909132235737613,-0.5200191299314627,-0.6785420038736797,-0.2763325245331564,-14.197922926620356,2.710077154709791,8.820151967442671,0.25295535277962455,-4.834681995470887,2.967920606646059,-0.39148045320185,0.7144151691342422,-0.0513961308002048
53648,3.758,0.4289089424572057,-0.5324271564398846,-0.6811916981281971,-0.2617944089678074,-18.503712662871948,2.051253774155694,8.903268060296282,-0.0065068506926053435,-4.603280277146134,2.495348294235667,-0.3812617844765892,0.7249591010424552,-0.04653837937778867
53649,3.767,0.4181004925530075,-0.542699660563108,-0.6838822385416952,-0.2509464890346545,-22.5027392496601,1.0690119404269467,8.524434714821611,-0.47263892149301096,-4.091321609453315,1.7297263763385677,-0.3768227397958841,0.7305895585540082,-0.0192136759131396
53650,3.775,0.40745071426087714,-0.5507936412106303,-0.686327238235023,-0.24405983345672272,-25.73605487965227,0.1989421673115976,7.207622244748484,-0.9041145596928477,-3.3913506370505244,1.0259621285227059,-0.3627264791594235,0.7411705770107262,-0.010421399909135824
53651,3.783,0.3983538941364607,-0.556851377130499,-0.6880551909411081,-0.24043870951487867,-28.09101204129701,-0.010728589598888305,5.6136453947745135,-1.082439785572394,-2.5053295402112736,0.5665643115195315,-0.36502717635825505,0.7415491453705119,0.0037193597696174303
53652,3.792,0.39197988266323536,-0.5610369237484897,-0.6885865013931696,-0.23966220368940663,-29.777310469076294,0.0558708583119314,4.479912272842427,-1.08100930126851,-1.453304559668113,0.31192611517100405,-0.3626632512207228,0.731883630611403,0.0143272137794281
53653,3.800,0.3889414934726038,-0.5633479859192273,-0.6878001538683385,-0.24144255994903022,-30.71815018854146,0.44860622391006216,3.8194006030818457,-0.954449530541313,-0.32160048097716815,0.14120866308665803,-0.3616703822416071,0.7357688433711554,0.012100159086008836
53654,3.808,0.3895117485492742,-0.5633273795805114,-0.6858958593724378,-0.24594660244204827,-30.494031276160662,1.4603911996355037,3.31487129415799,-0.766112366544928,0.8844986391565887,-0.12869812494808566,-0.35977645563149613,0.7321833900556158,0.02020526655094036
53655,3.817,0.39341792857632923,-0.5604766050759182,-0.6831614234143287,-0.25372973455192843,-29.216013166883602,2.32512851976737,3.3531247181120385,-0.6419261761088343,2.1259287587691804,-0.580063853283461,-0.3648884526992185,0.739976994667936,0.01814063220365452
53656,3.825,0.3999175961068221,-0.5545770700085105,-0.6801065260867128,-0.26450955165963347,-27.350442642956942,2.5717689367099474,3.6969787901822264,-0.5209173957317442,3.1785709761849885,-1.1541246200980653,-0.3748452768019481,0.7274568466952643,0.010861977262267366
53657,3.833,0.4088154624666113,-0.5453230627264333,-0.676834900481436,-0.2781855359237029,-25.083424949369117,2.6224886111602292,4.713003847517353,-0.37035862812619685,4.192626958293719,-1.7888182761710578,-0.382803413204114,0.7292823986564216,-0.002642230634281775
